timestamp,board_ts_ms,ax,ay,az,gx,gy,gz,rotation_hint
2026-07-24 18:51:58.131,6157625,0.0126,-0.0988,0.993,3.8452,1.0376,-4.2114,
2026-07-24 18:51:58.151,6157645,0.0212,-0.1072,0.9924,4.2114,4.1504,-4.0894,
2026-07-24 18:51:58.171,6157665,0.031,-0.1245,0.9919,2.5635,6.1035,-3.2349,
2026-07-24 18:51:58.191,6157685,0.0426,-0.1283,0.9923,0.5493,5.5542,-2.1362,
2026-07-24 18:51:58.211,6157705,0.0474,-0.1207,0.9966,-1.0376,4.0283,-1.2817,
2026-07-24 18:51:58.232,6157725,0.0332,-0.1125,0.9965,-1.6479,3.6011,-0.9155,
2026-07-24 18:51:58.251,6157745,0.0328,-0.1003,0.9856,-1.0376,3.9673,-0.8545,
2026-07-24 18:51:58.271,6157765,0.0422,-0.092,0.9746,-0.1221,3.2959,-0.7935,
2026-07-24 18:51:58.291,6157785,0.0452,-0.0953,0.9651,0.4272,1.5259,-0.5493,
2026-07-24 18:51:58.311,6157805,0.0399,-0.1072,0.9659,-0.4272,-0.1221,-0.3052,
2026-07-24 18:51:58.331,6157825,0.0343,-0.1125,0.9832,-2.1973,-0.9155,-0.3662,
2026-07-24 18:51:58.351,6157845,0.0398,-0.1118,0.9949,-3.6621,-1.4038,-0.4883,
2026-07-24 18:51:58.372,6157865,0.0463,-0.1044,0.9962,-4.0894,-2.5635,-0.7324,
2026-07-24 18:51:58.391,6157885,0.047,-0.1013,0.9966,-3.9673,-3.8452,-1.2817,
2026-07-24 18:51:58.412,6157905,0.0404,-0.1036,0.991,-3.7842,-4.4556,-2.1973,
2026-07-24 18:51:58.432,6157925,0.0309,-0.109,0.9865,-4.3945,-3.6621,-3.54,
2026-07-24 18:51:58.451,6157945,0.0154,-0.0923,0.9994,-4.5166,-1.2817,-4.9438,
2026-07-24 18:51:58.471,6157965,0.0068,-0.0841,0.9978,-3.6011,2.0752,-6.2256,
2026-07-24 18:51:58.491,6157985,0.0111,-0.0934,0.9955,-3.1128,5.0659,-6.7139,
2026-07-24 18:51:58.511,6158005,0.0343,-0.1024,1.0002,-3.0518,5.7373,-6.5918,
2026-07-24 18:51:58.531,6158025,0.0433,-0.1024,1.0054,-3.1128,4.1504,-6.2256,
2026-07-24 18:51:58.551,6158045,0.0366,-0.0953,1.0043,-2.4414,2.6855,-5.8594,
2026-07-24 18:51:58.571,6158065,0.0251,-0.0978,0.9987,-1.5259,2.4414,-5.7983,
2026-07-24 18:51:58.591,6158085,0.016,-0.1033,0.9977,-1.1597,3.54,-6.1035,
2026-07-24 18:51:58.611,6158105,0.0107,-0.0991,1.0024,-1.0376,5.4932,-6.5308,
2026-07-24 18:51:58.631,6158125,0.0275,-0.0974,1.0131,-0.6714,6.3477,-6.8359,
2026-07-24 18:51:58.651,6158145,0.0568,-0.1124,1.0159,-0.8545,3.7842,-7.0801,
2026-07-24 18:51:58.671,6158165,0.0582,-0.1168,1.0121,-1.5259,-0.4272,-7.5684,
2026-07-24 18:51:58.692,6158185,0.0348,-0.0952,1.0142,-0.7935,-2.9907,-7.6294,
2026-07-24 18:51:58.711,6158205,0.0273,-0.0896,1.0112,1.2207,-4.0283,-7.2021,
2026-07-24 18:51:58.731,6158225,0.0227,-0.0836,1.0139,3.9673,-4.0283,-6.5918,
2026-07-24 18:51:58.751,6158245,0.0195,-0.0875,1.0197,6.7749,-3.3569,-6.2256,
2026-07-24 18:51:58.771,6158265,0.0183,-0.1062,1.0232,8.2397,-2.3193,-6.1035,
2026-07-24 18:51:58.791,6158285,0.0232,-0.1171,1.0238,7.6904,-1.2207,-5.9814,
2026-07-24 18:51:58.811,6158305,0.0328,-0.121,1.022,5.9814,-0.7324,-5.4932,
2026-07-24 18:51:58.831,6158325,0.0402,-0.1226,1.0194,3.8452,-1.5259,-4.3335,
2026-07-24 18:51:58.851,6158345,0.0353,-0.1155,1.0117,2.1973,-3.0518,-2.9297,
2026-07-24 18:51:58.871,6158365,0.0244,-0.1118,0.9984,1.4038,-3.7842,-1.5869,
2026-07-24 18:51:58.891,6158385,0.0134,-0.1145,0.989,0.9155,-3.0518,-0.3662,
2026-07-24 18:51:58.911,6158405,0.0045,-0.1091,0.9883,0.3662,-0.9766,0.4883,
2026-07-24 18:51:58.931,6158425,0.0066,-0.0977,0.9863,0.4883,2.0142,0.9766,
2026-07-24 18:51:58.951,6158445,0.0233,-0.0936,0.9795,1.5869,3.9062,1.2817,
2026-07-24 18:51:58.971,6158465,0.0306,-0.0947,0.9708,3.0518,4.1504,1.5259,
2026-07-24 18:51:58.991,6158485,0.0278,-0.1024,0.9683,4.1504,3.6621,1.5869,
2026-07-24 18:51:59.011,6158505,0.0402,-0.1184,0.9698,4.4556,3.1128,1.709,
2026-07-24 18:51:59.031,6158525,0.0533,-0.1292,0.9705,3.3569,1.4038,1.77,
2026-07-24 18:51:59.051,6158545,0.0583,-0.1238,0.9729,1.709,-1.5869,1.709,
2026-07-24 18:51:59.071,6158565,0.0529,-0.1104,0.9772,0.8545,-4.9438,1.8921,
2026-07-24 18:51:59.091,6158585,0.045,-0.1033,0.9803,1.0376,-7.3853,2.0142,
2026-07-24 18:51:59.111,6158605,0.0326,-0.1077,0.9872,1.5869,-8.1177,1.2817,
2026-07-24 18:51:59.131,6158625,0.0242,-0.1111,1.001,1.3428,-6.7749,-0.1221,
2026-07-24 18:51:59.151,6158645,0.0227,-0.1099,1.0103,0.9155,-4.3945,-1.6479,
2026-07-24 18:51:59.171,6158665,0.0204,-0.1127,1.0026,0.8545,-1.8311,-2.7466,
2026-07-24 18:51:59.191,6158685,0.0231,-0.1135,0.9962,1.0986,0.3662,-2.9907,
2026-07-24 18:51:59.211,6158705,0.0222,-0.1168,0.996,1.4648,2.2583,-2.9907,
2026-07-24 18:51:59.231,6158725,0.0248,-0.1207,1.001,1.709,4.0894,-2.6855,
2026-07-24 18:51:59.251,6158745,0.0356,-0.1217,1.0049,1.709,5.4321,-2.6245,
2026-07-24 18:51:59.271,6158765,0.032,-0.1151,1.0145,1.9531,5.9204,-3.0518,
2026-07-24 18:51:59.291,6158785,0.02,-0.1075,1.0146,3.1128,6.7749,-3.7231,
2026-07-24 18:51:59.311,6158805,0.0286,-0.1117,1.0006,4.7607,8.3008,-4.1504,
2026-07-24 18:51:59.331,6158825,0.0493,-0.1239,0.9868,5.6152,8.0566,-4.2114,
2026-07-24 18:51:59.351,6158845,0.0493,-0.1411,0.9774,4.6997,5.4321,-3.9673,
2026-07-24 18:51:59.371,6158865,0.0353,-0.1451,0.9799,2.6245,2.5024,-3.3569,
2026-07-24 18:51:59.391,6158885,0.0236,-0.1356,0.9738,0.3662,1.0986,-1.77,
2026-07-24 18:51:59.412,6158905,0.0149,-0.1399,0.9669,-0.2441,2.0752,-0.9155,
2026-07-24 18:51:59.431,6158925,0.0304,-0.1388,0.9851,-1.0376,2.6855,-0.5493,
2026-07-24 18:51:59.451,6158945,0.0428,-0.1268,1.0085,-1.3428,1.4648,-0.7935,
2026-07-24 18:51:59.471,6158965,0.0365,-0.1259,1.0157,-1.0986,0.1221,-1.2817,
2026-07-24 18:51:59.491,6158985,0.028,-0.1241,1.0175,-0.6104,-0.061,-1.6479,
2026-07-24 18:51:59.511,6159005,0.0295,-0.1239,1.017,0.4272,-0.1831,-1.5869,
2026-07-24 18:51:59.531,6159025,0.0284,-0.1281,1.002,1.6479,-0.3662,-0.8545,
2026-07-24 18:51:59.551,6159045,0.0308,-0.1305,0.9922,2.5635,-0.7935,-0.1221,
2026-07-24 18:51:59.571,6159065,0.0309,-0.1282,1.0001,3.3569,-1.0986,0.3052,
2026-07-24 18:51:59.591,6159085,0.0269,-0.1323,1.0098,3.54,-0.9766,0.4272,
2026-07-24 18:51:59.611,6159105,0.0347,-0.1456,1.0067,2.3804,-1.0986,0.1221,
2026-07-24 18:51:59.631,6159125,0.0343,-0.1554,0.9988,0.061,-1.4648,-0.3052,
2026-07-24 18:51:59.651,6159145,0.0229,-0.1451,1.0074,-1.709,-0.8545,-0.6714,
2026-07-24 18:51:59.671,6159165,0.0177,-0.134,1.0105,-1.5869,0.7324,-0.8545,
2026-07-24 18:51:59.691,6159185,0.0225,-0.1356,0.988,-0.9766,1.9531,-0.9155,
2026-07-24 18:51:59.711,6159205,0.0262,-0.1387,0.9711,-0.8545,2.3804,-0.9766,
2026-07-24 18:51:59.731,6159225,0.0332,-0.1412,0.9658,-1.2817,2.0142,-0.9766,
2026-07-24 18:51:59.751,6159245,0.036,-0.1425,0.965,-1.8921,0.9155,-0.9155,
2026-07-24 18:51:59.771,6159265,0.0334,-0.1407,0.9594,-2.3804,-0.1831,-1.0986,
2026-07-24 18:51:59.791,6159285,0.0317,-0.1287,0.9652,-1.709,-0.9766,-1.1597,
2026-07-24 18:51:59.811,6159305,0.05,-0.11,0.9833,1.0376,-2.9297,-1.0376,
2026-07-24 18:51:59.831,6159325,0.0662,-0.1138,0.9945,4.2725,-6.897,-0.8545,
2026-07-24 18:51:59.851,6159345,0.0498,-0.1329,0.9949,5.7373,-10.2539,-0.5493,
2026-07-24 18:51:59.871,6159365,0.0175,-0.1447,1.0012,5.0659,-10.1318,-0.3662,
2026-07-24 18:51:59.891,6159385,-0.0116,-0.1447,1.0068,3.7842,-6.3477,0.061,
2026-07-24 18:51:59.911,6159405,-0.0072,-0.1359,0.9966,2.6855,-1.2207,0.9155,
2026-07-24 18:51:59.931,6159425,0.0183,-0.1339,1.0031,2.1973,2.1362,2.1973,
2026-07-24 18:51:59.951,6159445,0.042,-0.1337,1.0186,1.9531,2.3804,3.6621,
2026-07-24 18:51:59.971,6159465,0.0389,-0.1414,1.01,1.4648,0.4272,4.4556,
2026-07-24 18:51:59.991,6159485,0.0132,-0.155,0.9783,-0.1831,-0.6104,4.7607,
2026-07-24 18:52:00.011,6159505,0.0131,-0.1508,0.9705,-2.5635,1.0986,4.8218,
2026-07-24 18:52:00.031,6159525,0.0364,-0.1418,0.9672,-4.2114,2.5024,4.6997,
2026-07-24 18:52:00.051,6159545,0.0297,-0.1415,0.9655,-4.8218,1.77,4.4556,
2026-07-24 18:52:00.071,6159565,0.0125,-0.139,0.9741,-4.8828,1.77,4.2114,
2026-07-24 18:52:00.091,6159585,0.0045,-0.1372,0.9652,-4.6997,3.418,4.2114,
2026-07-24 18:52:00.111,6159605,0.0125,-0.1304,0.9572,-4.3335,5.249,4.4556,
2026-07-24 18:52:00.131,6159625,0.0234,-0.1232,0.9639,-3.54,6.1646,4.4556,
2026-07-24 18:52:00.151,6159645,0.0348,-0.124,0.9656,-2.2583,5.8594,4.3945,
2026-07-24 18:52:00.171,6159665,0.0535,-0.1176,0.9757,-0.9155,4.0283,4.5166,
2026-07-24 18:52:00.191,6159685,0.0745,-0.1125,0.9818,0.7935,0.3662,4.6997,
2026-07-24 18:52:00.211,6159705,0.0864,-0.113,0.9884,2.5635,-5.3101,4.5166,
2026-07-24 18:52:00.231,6159725,0.0814,-0.1188,0.9933,3.7231,-11.7798,3.9062,
2026-07-24 18:52:00.251,6159745,0.0568,-0.131,0.996,3.8452,-16.5405,2.9907,
2026-07-24 18:52:00.271,6159765,0.0281,-0.1416,0.9977,2.3804,-17.7612,1.709,
2026-07-24 18:52:00.291,6159785,-0.0017,-0.1392,1.0189,-0.1221,-14.9536,0.061,
2026-07-24 18:52:00.312,6159805,-0.0168,-0.1273,1.038,-2.1973,-8.9111,-1.4648,
2026-07-24 18:52:00.331,6159825,-0.0082,-0.1193,1.0292,-2.7466,-1.709,-2.5635,
2026-07-24 18:52:00.351,6159845,0.0135,-0.1162,1.0187,-2.2583,3.7842,-2.9907,
2026-07-24 18:52:00.371,6159865,0.0302,-0.1176,1.0045,-1.4038,6.4087,-3.0518,
2026-07-24 18:52:00.391,6159885,0.0251,-0.1217,0.9843,-0.6714,7.1411,-3.1738,
2026-07-24 18:52:00.411,6159905,0.0155,-0.1249,0.9807,-0.4272,8.1177,-3.7231,
2026-07-24 18:52:00.431,6159925,0.0223,-0.1256,0.9906,-0.4272,9.8267,-4.5776,
2026-07-24 18:52:00.451,6159945,0.0349,-0.1219,0.9961,-0.2441,10.498,-5.9204,
2026-07-24 18:52:00.471,6159965,0.0503,-0.1168,0.9846,0.6714,9.3384,-6.8359,
2026-07-24 18:52:00.491,6159985,0.0636,-0.1234,0.9735,2.1362,5.9814,-7.0801,
2026-07-24 18:52:00.511,6160005,0.0676,-0.1337,0.965,2.6855,0.9155,-6.897,
2026-07-24 18:52:00.536,6160029,0.0537,-0.132,0.97,1.709,-6.5308,-6.2256,
2026-07-24 18:52:00.555,6160049,0.0289,-0.1296,0.9847,1.1597,-8.4229,-5.5542,
2026-07-24 18:52:00.575,6160069,0.0089,-0.1316,0.9985,0.4883,-7.5073,-4.6997,
2026-07-24 18:52:00.595,6160089,0.0067,-0.1334,0.9919,-0.6714,-5.249,-3.6011,
2026-07-24 18:52:00.615,6160109,0.0073,-0.1345,0.9813,-1.8921,-2.5635,-2.6245,
2026-07-24 18:52:00.635,6160129,0.0126,-0.1299,0.9971,-2.5635,0.0,-1.2207,
2026-07-24 18:52:00.655,6160149,0.0182,-0.1327,1.0111,-2.6855,1.709,0.0,
2026-07-24 18:52:00.675,6160169,0.0164,-0.1245,1.0138,-2.4414,3.2959,1.0376,
2026-07-24 18:52:00.695,6160189,0.0156,-0.1152,1.0138,-1.1597,4.7607,2.0752,
2026-07-24 18:52:00.715,6160209,0.0154,-0.1223,1.0022,0.5493,6.1035,3.2349,
2026-07-24 18:52:00.735,6160229,0.0093,-0.1277,0.9917,1.3428,7.5684,4.3335,
2026-07-24 18:52:00.755,6160249,0.0142,-0.12,0.9938,1.77,9.5825,5.4932,
2026-07-24 18:52:00.775,6160269,0.0343,-0.1172,0.9919,2.9907,10.376,6.4087,
2026-07-24 18:52:00.795,6160289,0.0452,-0.125,0.9817,4.3335,9.2163,6.958,
2026-07-24 18:52:00.815,6160309,0.0529,-0.1345,0.9836,4.5776,6.7749,7.1411,
2026-07-24 18:52:00.835,6160329,0.0555,-0.1429,0.9905,3.7842,3.3569,7.2632,
2026-07-24 18:52:00.855,6160349,0.0432,-0.141,0.9899,2.1973,0.1221,7.2021,
2026-07-24 18:52:00.875,6160369,0.0338,-0.1335,0.9875,1.2207,-1.2817,7.1411,
2026-07-24 18:52:00.895,6160389,0.0482,-0.1295,0.9921,0.9155,-1.77,6.958,
2026-07-24 18:52:00.915,6160409,0.0532,-0.1313,0.9888,0.9155,-3.418,6.5918,
2026-07-24 18:52:00.935,6160429,0.0376,-0.1323,0.984,0.6104,-4.6387,5.7983,
2026-07-24 18:52:00.955,6160449,0.0417,-0.1346,0.9951,0.2441,-4.3945,4.8218,
2026-07-24 18:52:00.975,6160469,0.0586,-0.139,1.0013,-0.4272,-4.2114,3.479,
2026-07-24 18:52:00.995,6160489,0.0602,-0.1302,0.9969,-0.9155,-5.4321,2.0752,
2026-07-24 18:52:01.015,6160509,0.0504,-0.1208,0.9944,-0.3662,-6.4087,0.6714,
2026-07-24 18:52:01.035,6160529,0.0331,-0.121,0.9962,0.9155,-5.7983,-0.7935,
2026-07-24 18:52:01.055,6160549,0.0179,-0.1271,0.9962,1.8311,-3.2349,-2.1973,
2026-07-24 18:52:01.075,6160569,0.0173,-0.1344,0.9939,1.8311,0.6104,-3.54,
2026-07-24 18:52:01.095,6160589,0.0425,-0.1367,0.9973,1.0986,3.418,-4.0894,
2026-07-24 18:52:01.115,6160609,0.0607,-0.1346,1.0023,0.2441,3.1738,-4.2114,
2026-07-24 18:52:01.135,6160629,0.0516,-0.1382,1.0011,-0.1221,1.3428,-4.0283,
2026-07-24 18:52:01.155,6160649,0.0453,-0.1349,1.0035,-0.3662,0.3662,-3.9062,
2026-07-24 18:52:01.175,6160669,0.0463,-0.1329,1.002,-0.1831,0.061,-3.7842,
2026-07-24 18:52:01.195,6160689,0.0425,-0.1365,0.9969,0.1221,-0.4883,-3.3569,
2026-07-24 18:52:01.215,6160709,0.0391,-0.1311,0.993,0.1221,-0.7935,-2.9907,
2026-07-24 18:52:01.235,6160729,0.0399,-0.1263,0.9945,0.4883,-1.0376,-2.3193,
2026-07-24 18:52:01.255,6160749,0.0334,-0.1332,0.9878,0.7935,-1.2207,-1.6479,
2026-07-24 18:52:01.275,6160769,0.0269,-0.1444,0.9797,0.3662,-0.7935,-1.0986,
2026-07-24 18:52:01.295,6160789,0.0327,-0.1392,0.9833,-0.9155,0.1831,-0.5493,
2026-07-24 18:52:01.315,6160809,0.038,-0.1234,0.9918,-1.2207,0.4883,0.1221,
2026-07-24 18:52:01.335,6160829,0.0359,-0.1198,0.9921,0.8545,0.1221,1.2817,
2026-07-24 18:52:01.355,6160849,0.0319,-0.1292,0.9833,1.5259,0.4272,1.709,
2026-07-24 18:52:01.375,6160869,0.0271,-0.1407,0.9858,0.7324,1.4648,1.5869,
2026-07-24 18:52:01.395,6160889,0.0273,-0.1394,0.9948,-0.7935,2.9297,1.0376,
2026-07-24 18:52:01.415,6160909,0.0316,-0.1364,0.9945,-2.0752,3.9062,0.5493,
2026-07-24 18:52:01.435,6160929,0.0364,-0.1329,0.999,-2.5635,4.0894,0.3662,
2026-07-24 18:52:01.455,6160949,0.048,-0.1316,1.0021,-2.2583,3.0518,0.4883,
2026-07-24 18:52:01.475,6160969,0.0525,-0.1316,0.9962,-2.0142,0.9766,0.4272,
2026-07-24 18:52:01.495,6160989,0.0439,-0.1312,0.9907,-1.8921,-0.6714,0.1221,
2026-07-24 18:52:01.515,6161009,0.0355,-0.1329,0.9875,-1.8921,-0.9766,-0.6104,
2026-07-24 18:52:01.535,6161029,0.0349,-0.1298,0.988,-1.8311,-0.6714,-1.6479,
2026-07-24 18:52:01.555,6161049,0.0342,-0.1224,0.9846,-1.0986,-0.3662,-2.5635,
2026-07-24 18:52:01.575,6161069,0.0349,-0.1187,0.9852,-0.061,-0.3052,-3.1128,
2026-07-24 18:52:01.595,6161089,0.0433,-0.1241,0.9841,0.8545,-1.0376,-3.1738,
2026-07-24 18:52:01.615,6161109,0.0504,-0.1284,0.9851,1.2207,-3.0518,-2.9297,
2026-07-24 18:52:01.635,6161129,0.0468,-0.1321,0.983,1.0376,-5.0659,-2.6855,
2026-07-24 18:52:01.655,6161149,0.0303,-0.1361,0.9821,0.1831,-5.7373,-2.4414,
2026-07-24 18:52:01.676,6161169,0.0126,-0.1299,0.9844,-0.6714,-4.3335,-1.9531,
2026-07-24 18:52:01.695,6161189,0.0184,-0.123,0.9824,-0.8545,-2.7466,-1.3428,
2026-07-24 18:52:01.715,6161209,0.0339,-0.1233,0.9755,-0.7935,-2.6245,-0.7324,
2026-07-24 18:52:01.735,6161229,0.0371,-0.1276,0.9788,-1.0376,-3.6011,-0.3052,
2026-07-24 18:52:01.755,6161249,0.0281,-0.1309,0.9863,-1.8921,-3.9062,0.0,
2026-07-24 18:52:01.775,6161269,0.0206,-0.1326,0.9907,-3.1738,-3.3569,0.3662,
2026-07-24 18:52:01.795,6161289,0.0192,-0.1306,0.9913,-4.2725,-2.3804,0.7935,
2026-07-24 18:52:01.815,6161309,0.0264,-0.1196,0.9957,-4.3945,-1.8921,1.2207,
2026-07-24 18:52:01.835,6161329,0.0288,-0.1125,0.9949,-3.479,-1.9531,1.5869,
2026-07-24 18:52:01.855,6161349,0.0256,-0.1128,0.9867,-2.3193,-1.5869,1.6479,
2026-07-24 18:52:01.875,6161369,0.0203,-0.1279,0.9924,-2.1973,-0.6714,1.2817,
2026-07-24 18:52:01.895,6161389,0.0223,-0.1202,1.0071,-2.8076,0.4883,0.7324,
2026-07-24 18:52:01.915,6161409,0.0223,-0.1145,1.0087,-2.3804,1.5259,0.1831,
2026-07-24 18:52:01.935,6161429,0.0264,-0.115,1.0039,-1.2817,2.2583,0.061,
2026-07-24 18:52:01.955,6161449,0.0326,-0.1171,1.0068,-0.1221,2.1362,0.2441,
2026-07-24 18:52:01.975,6161469,0.0309,-0.1198,1.0128,0.6104,1.2817,0.4883,
2026-07-24 18:52:01.995,6161489,0.0272,-0.1229,1.0177,0.9155,0.7324,0.6104,
2026-07-24 18:52:02.015,6161509,0.0322,-0.1234,1.0189,0.8545,0.6104,0.1831,
2026-07-24 18:52:02.035,6161529,0.0309,-0.1268,1.0085,0.6104,-0.1221,-0.4883,
2026-07-24 18:52:02.055,6161549,0.0186,-0.132,1.0005,0.0,-0.4883,-0.9766,
2026-07-24 18:52:02.075,6161569,0.0078,-0.1277,0.995,-0.4883,0.5493,-1.1597,
2026-07-24 18:52:02.095,6161589,0.0051,-0.1239,0.9816,-0.4883,2.3804,-0.9766,
2026-07-24 18:52:02.115,6161609,0.0129,-0.1246,0.976,-0.2441,3.9062,-0.3052,
2026-07-24 18:52:02.135,6161629,0.0287,-0.1273,0.9803,-0.1221,4.1504,0.6104,
2026-07-24 18:52:02.155,6161649,0.0359,-0.1312,0.9834,-0.5493,2.8687,1.3428,
2026-07-24 18:52:02.175,6161669,0.0302,-0.1316,0.98,-1.2817,0.9155,1.77,
2026-07-24 18:52:02.195,6161689,0.0211,-0.1263,0.9778,-2.0752,0.061,1.9531,
2026-07-24 18:52:02.215,6161709,0.0205,-0.1229,0.9769,-2.0142,0.1831,1.8921,
2026-07-24 18:52:02.235,6161729,0.0278,-0.1229,0.9821,-1.4648,0.2441,2.0142,
2026-07-24 18:52:02.255,6161749,0.0327,-0.1224,0.9932,-0.7324,-0.4272,2.1362,
2026-07-24 18:52:02.275,6161769,0.0366,-0.1245,0.9938,0.061,-1.4648,2.2583,
2026-07-24 18:52:02.295,6161789,0.0363,-0.1256,0.9886,0.2441,-2.8076,2.2583,
2026-07-24 18:52:02.315,6161809,0.0304,-0.123,0.9989,0.1831,-4.0283,2.0752,
2026-07-24 18:52:02.335,6161829,0.0204,-0.1194,1.0029,0.4272,-4.4556,1.9531,
2026-07-24 18:52:02.355,6161849,0.0127,-0.1199,0.9999,0.9155,-3.6621,1.77,
2026-07-24 18:52:02.375,6161869,0.0156,-0.1226,1.0028,1.0376,-1.8921,1.5259,
2026-07-24 18:52:02.395,6161889,0.0261,-0.1283,1.0006,0.9155,-0.4883,1.2207,
2026-07-24 18:52:02.415,6161909,0.0309,-0.1301,0.995,0.1221,-0.1831,0.9155,
2026-07-24 18:52:02.435,6161929,0.0272,-0.1282,0.9911,-0.9766,-0.4272,0.5493,
2026-07-24 18:52:02.455,6161949,0.0199,-0.1271,0.9874,-1.8311,-0.061,0.061,
2026-07-24 18:52:02.475,6161969,0.017,-0.1243,0.9841,-2.5024,1.0376,-0.3052,
2026-07-24 18:52:02.495,6161989,0.0217,-0.1173,0.988,-2.6245,2.1973,-0.5493,
2026-07-24 18:52:02.515,6162009,0.0374,-0.11,0.9967,-1.8311,2.2583,-0.6104,
2026-07-24 18:52:02.535,6162029,0.0477,-0.1105,0.9943,-0.4272,0.5493,-0.6714,
2026-07-24 18:52:02.555,6162049,0.045,-0.1163,0.9912,0.8545,-3.54,-0.8545,
2026-07-24 18:52:02.575,6162069,0.0312,-0.1235,0.9916,0.4883,-4.7607,-1.2207,
2026-07-24 18:52:02.595,6162089,0.0204,-0.1235,0.9939,-0.1831,-4.3335,-1.709,
2026-07-24 18:52:02.615,6162109,0.0176,-0.1201,0.9978,-0.7324,-3.1738,-1.8921,
2026-07-24 18:52:02.635,6162129,0.0144,-0.121,1.0072,-1.0376,-2.0142,-1.9531,
2026-07-24 18:52:02.655,6162149,0.0046,-0.1278,1.0018,-1.709,-0.3052,-1.4648,
2026-07-24 18:52:02.676,6162169,0.0056,-0.1281,1.0027,-2.9297,1.77,-0.9766,
2026-07-24 18:52:02.695,6162189,0.0139,-0.1123,1.028,-3.0518,2.9297,-0.4272,
2026-07-24 18:52:02.715,6162209,0.0238,-0.1078,1.0441,-2.1973,2.9297,-0.1221,
2026-07-24 18:52:02.735,6162229,0.0304,-0.119,1.0408,-1.77,1.8311,-0.1221,
2026-07-24 18:52:02.755,6162249,0.032,-0.1367,1.0254,-2.8687,0.4272,-0.2441,
2026-07-24 18:52:02.775,6162269,0.0306,-0.1476,1.012,-4.8828,-0.7324,-0.4883,
2026-07-24 18:52:02.795,6162289,0.0247,-0.1349,1.01,-5.9204,-1.2817,-0.6714,
2026-07-24 18:52:02.815,6162309,0.0084,-0.1154,1.0048,-4.7607,-0.4883,-0.7324,
2026-07-24 18:52:02.835,6162329,-0.0037,-0.1052,0.9937,-2.1362,1.8921,-0.6714,
2026-07-24 18:52:02.855,6162349,0.0012,-0.0944,0.9856,1.2817,4.0894,-0.3662,
2026-07-24 18:52:02.875,6162369,0.0117,-0.092,0.9847,4.6997,4.8218,0.4883,
2026-07-24 18:52:02.895,6162389,0.0336,-0.0989,0.9893,7.2021,3.479,1.5869,
2026-07-24 18:52:02.915,6162409,0.0522,-0.1182,0.9806,7.8125,-0.1221,2.5024,
2026-07-24 18:52:02.935,6162429,0.0531,-0.1475,0.9675,5.7983,-4.1504,2.8076,
2026-07-24 18:52:02.955,6162449,0.0437,-0.1537,0.9738,2.3193,-6.7749,2.9297,
2026-07-24 18:52:02.975,6162469,0.0295,-0.1483,0.9851,-0.6714,-7.6294,2.9297,
2026-07-24 18:52:02.995,6162489,0.0203,-0.1372,0.9958,-2.2583,-7.0801,2.9907,
2026-07-24 18:52:03.015,6162509,0.0201,-0.1207,1.0067,-2.3193,-6.1035,3.1738,
2026-07-24 18:52:03.035,6162529,0.0236,-0.113,1.0066,-1.4038,-5.6763,3.1738,
2026-07-24 18:52:03.055,6162549,0.0083,-0.1113,0.9977,-0.3662,-4.5776,3.1738,
2026-07-24 18:52:03.075,6162569,-0.0063,-0.1064,1.0004,0.8545,-1.5869,3.8452,
2026-07-24 18:52:03.095,6162589,0.0098,-0.1038,1.0002,2.9907,1.4038,4.6387,
2026-07-24 18:52:03.115,6162609,0.0159,-0.105,0.9948,5.6152,2.7466,5.3101,
2026-07-24 18:52:03.135,6162629,0.0154,-0.1124,0.9851,7.9956,3.479,5.9814,
2026-07-24 18:52:03.155,6162649,0.0204,-0.1235,0.9729,9.3994,4.1504,6.4087,
2026-07-24 18:52:03.175,6162669,0.0304,-0.1284,0.9628,9.3994,4.3945,6.5918,
2026-07-24 18:52:03.195,6162689,0.043,-0.1329,0.9648,8.3008,3.418,6.5308,
2026-07-24 18:52:03.215,6162709,0.0508,-0.135,0.9708,6.2256,0.9766,6.1646,
2026-07-24 18:52:03.235,6162729,0.045,-0.1334,0.9772,3.9062,-2.0142,5.7373,
2026-07-24 18:52:03.255,6162749,0.0326,-0.1237,0.9844,2.3193,-4.2114,5.4932,
2026-07-24 18:52:03.275,6162769,0.024,-0.1129,0.9846,2.0752,-5.0049,5.4321,
2026-07-24 18:52:03.295,6162789,0.0234,-0.1113,0.9889,3.1128,-5.0049,5.3101,
2026-07-24 18:52:03.315,6162809,0.0226,-0.1143,0.9971,4.0894,-4.7607,4.8828,
2026-07-24 18:52:03.335,6162829,0.0153,-0.1235,0.9944,4.2725,-3.7842,3.7231,
2026-07-24 18:52:03.355,6162849,0.0149,-0.1267,0.9883,3.2349,-1.9531,2.3193,
2026-07-24 18:52:03.375,6162869,0.0284,-0.1149,0.9976,2.2583,-0.4272,1.1597,
2026-07-24 18:52:03.395,6162889,0.0341,-0.1116,1.0052,2.5635,-0.3662,0.3052,
2026-07-24 18:52:03.415,6162909,0.027,-0.1223,1.0009,3.2959,-0.9155,-0.2441,
2026-07-24 18:52:03.435,6162929,0.0232,-0.1276,0.999,2.8687,-0.9155,-0.5493,
2026-07-24 18:52:03.455,6162949,0.0205,-0.1302,0.9949,1.8921,-0.5493,-0.7935,
2026-07-24 18:52:03.475,6162969,0.0116,-0.1357,0.9845,0.6104,0.1221,-1.0376,
2026-07-24 18:52:03.495,6162989,0.0093,-0.1323,0.9791,-0.7935,1.5259,-0.9155,
2026-07-24 18:52:03.515,6163009,0.0135,-0.1093,0.9873,-1.1597,2.6245,-0.3052,
2026-07-24 18:52:03.535,6163029,0.0133,-0.0862,0.9977,0.8545,3.1128,0.7324,
2026-07-24 18:52:03.555,6163049,0.0077,-0.0848,0.9933,4.7607,3.418,1.709,
2026-07-24 18:52:03.575,6163069,0.0027,-0.104,0.9845,8.1177,4.2114,2.5024,
2026-07-24 18:52:03.595,6163089,0.0079,-0.1216,0.9861,9.0332,5.6152,3.1128,
2026-07-24 18:52:03.615,6163109,0.0216,-0.129,0.9862,7.9956,6.4697,3.2959,
2026-07-24 18:52:03.635,6163129,0.0294,-0.1393,0.9785,5.6763,5.8594,3.418,
2026-07-24 18:52:03.655,6163149,0.028,-0.1462,0.9741,2.6245,4.4556,3.3569,
2026-07-24 18:52:03.675,6163169,0.0278,-0.1442,0.9756,-0.6104,3.1128,3.54,
2026-07-24 18:52:03.695,6163189,0.033,-0.1364,0.9824,-3.418,1.6479,3.6621,
2026-07-24 18:52:03.715,6163209,0.0387,-0.1304,0.9886,-5.3711,-0.2441,3.8452,
2026-07-24 18:52:03.735,6163229,0.0496,-0.1366,0.9908,-6.5308,-2.7466,3.8452,
2026-07-24 18:52:03.755,6163249,0.0563,-0.1404,0.9915,-7.8735,-6.1646,3.54,
2026-07-24 18:52:03.775,6163269,0.0378,-0.1338,0.9976,-9.2773,-10.6201,2.6855,
2026-07-24 18:52:03.795,6163289,0.0013,-0.1304,0.9996,-8.7891,-9.2163,2.1973,
2026-07-24 18:52:03.815,6163309,-0.0205,-0.1298,0.996,-7.5684,-4.2725,1.8311,
2026-07-24 18:52:03.835,6163329,-0.0129,-0.1268,1.0023,-5.6152,1.0376,1.5869,
2026-07-24 18:52:03.855,6163349,0.0065,-0.1207,1.0043,-3.2349,4.1504,1.4648,
2026-07-24 18:52:03.875,6163369,0.0142,-0.1205,1.0004,-0.6714,5.188,1.1597,
2026-07-24 18:52:03.895,6163389,0.0094,-0.132,0.9966,0.5493,6.3477,0.3662,
2026-07-24 18:52:03.915,6163409,0.0162,-0.1448,0.9889,0.0,7.3242,-0.7324,
2026-07-24 18:52:03.935,6163429,0.0293,-0.1458,0.9852,-0.9766,6.7749,-1.6479,
2026-07-24 18:52:03.955,6163449,0.0422,-0.1434,0.9854,-1.709,4.6387,-2.2583,
2026-07-24 18:52:03.975,6163469,0.0497,-0.1522,0.9906,-2.6245,1.2207,-2.8687,
2026-07-24 18:52:03.995,6163489,0.046,-0.1602,0.9913,-4.3945,-2.3804,-3.479,
2026-07-24 18:52:04.015,6163509,0.0352,-0.1514,0.9895,-5.7983,-4.7607,-4.0894,
2026-07-24 18:52:04.035,6163529,0.0194,-0.1342,0.9869,-5.7373,-5.4321,-4.5776,
2026-07-24 18:52:04.055,6163549,0.0111,-0.1279,0.9855,-4.6387,-4.9438,-4.7607,
2026-07-24 18:52:04.075,6163569,0.0106,-0.1208,0.9856,-2.7466,-4.2725,-4.3945,
2026-07-24 18:52:04.095,6163589,0.0138,-0.1183,0.9845,-0.6104,-4.0283,-3.479,
2026-07-24 18:52:04.115,6163609,0.0134,-0.1219,0.9912,1.3428,-3.9062,-2.2583,
2026-07-24 18:52:04.135,6163629,0.0131,-0.1279,0.9922,2.7466,-3.1738,-1.2207,
2026-07-24 18:52:04.155,6163649,0.0123,-0.1324,0.9935,3.479,-2.1973,-0.4272,
2026-07-24 18:52:04.175,6163669,0.014,-0.1414,0.9913,3.418,-1.0986,0.2441,
2026-07-24 18:52:04.195,6163689,0.0156,-0.1505,0.9807,2.2583,0.0,0.7935,
2026-07-24 18:52:04.215,6163709,0.0146,-0.1488,0.9818,0.8545,0.9155,1.2817,
2026-07-24 18:52:04.235,6163729,0.0143,-0.1313,0.9941,0.3662,1.8921,2.0752,
2026-07-24 18:52:04.255,6163749,0.0173,-0.1221,0.9961,1.2817,2.4414,2.9297,
2026-07-24 18:52:04.275,6163769,0.0212,-0.1226,0.9896,2.4414,2.4414,3.6621,
2026-07-24 18:52:04.295,6163789,0.0266,-0.123,0.991,3.0518,1.77,4.2114,
2026-07-24 18:52:04.315,6163809,0.0261,-0.1318,0.9879,3.2349,0.9766,4.4556,
2026-07-24 18:52:04.335,6163829,0.0317,-0.1373,0.9796,2.8687,0.4883,4.5166,
2026-07-24 18:52:04.355,6163849,0.0342,-0.1362,0.9811,2.0752,-0.3052,4.2725,
2026-07-24 18:52:04.375,6163869,0.0297,-0.1337,0.9884,1.2817,-1.2207,3.8452,
2026-07-24 18:52:04.395,6163889,0.0229,-0.1321,0.9921,0.6714,-1.4038,3.1738,
2026-07-24 18:52:04.415,6163909,0.0254,-0.129,0.9922,0.2441,-0.7935,2.4414,
2026-07-24 18:52:04.435,6163929,0.0308,-0.1273,1.0009,0.0,-0.4272,1.6479,
2026-07-24 18:52:04.455,6163949,0.0256,-0.131,1.0035,-0.1831,-0.4883,0.8545,
2026-07-24 18:52:04.475,6163969,0.0153,-0.1403,0.9993,-0.7935,0.0,0.3052,
2026-07-24 18:52:04.495,6163989,0.0166,-0.1371,0.9967,-1.6479,1.2207,0.1221,
2026-07-24 18:52:04.515,6164009,0.0217,-0.1268,0.9955,-1.5869,2.2583,0.1221,
2026-07-24 18:52:04.535,6164029,0.0133,-0.1252,0.9941,-0.4883,3.1128,0.061,
2026-07-24 18:52:04.555,6164049,0.0118,-0.1254,0.9927,0.8545,4.6387,0.0,
2026-07-24 18:52:04.575,6164069,0.0149,-0.1283,0.9904,1.9531,6.1035,-0.2441,
2026-07-24 18:52:04.595,6164089,0.021,-0.13,0.993,2.5635,6.897,-0.5493,
2026-07-24 18:52:04.615,6164109,0.033,-0.1377,0.9937,2.8076,6.6528,-0.5493,
2026-07-24 18:52:04.635,6164129,0.0291,-0.1403,0.9843,2.3804,5.188,-0.2441,
2026-07-24 18:52:04.655,6164149,0.0264,-0.1322,0.9792,2.1362,4.0283,0.061,
2026-07-24 18:52:04.675,6164169,0.0273,-0.1298,0.9844,2.4414,3.2349,0.3662,
2026-07-24 18:52:04.695,6164189,0.0358,-0.1343,0.9862,2.7466,2.3804,0.5493,
2026-07-24 18:52:04.715,6164209,0.0426,-0.1377,0.9874,2.6245,0.5493,0.6104,
2026-07-24 18:52:04.735,6164229,0.0454,-0.1389,0.9818,1.8311,-1.8311,0.4883,
2026-07-24 18:52:04.755,6164249,0.0352,-0.1368,0.9833,0.9766,-4.1504,0.3052,
2026-07-24 18:52:04.775,6164269,0.0205,-0.1333,0.9896,0.3662,-5.0049,0.1831,
2026-07-24 18:52:04.795,6164289,0.0121,-0.1317,0.9938,0.3052,-3.9673,0.061,
2026-07-24 18:52:04.815,6164309,0.0195,-0.1287,0.9973,0.6714,-2.2583,0.0,
2026-07-24 18:52:04.835,6164329,0.0289,-0.1277,0.9954,1.1597,-1.2817,0.061,
2026-07-24 18:52:04.855,6164349,0.0321,-0.1298,0.9933,1.5869,-1.4648,0.3662,
2026-07-24 18:52:04.875,6164369,0.0319,-0.1285,0.9911,1.9531,-1.8921,0.6104,
2026-07-24 18:52:04.895,6164389,0.0295,-0.1307,0.9937,2.0142,-2.0142,0.6714,
2026-07-24 18:52:04.915,6164409,0.0273,-0.1276,0.9946,1.8921,-1.5869,0.3662,
2026-07-24 18:52:04.935,6164429,0.0302,-0.1233,0.9926,2.0752,-0.9766,0.061,
2026-07-24 18:52:04.955,6164449,0.0336,-0.1277,0.9906,2.5635,-0.7935,-0.1831,
2026-07-24 18:52:04.975,6164469,0.0304,-0.1395,0.9923,2.3804,-0.8545,-0.3052,
2026-07-24 18:52:04.995,6164489,0.026,-0.1449,0.9911,0.061,-0.4272,-0.4272,
2026-07-24 18:52:05.015,6164509,0.026,-0.1405,0.9944,-1.5869,0.2441,-0.1221,
2026-07-24 18:52:05.035,6164529,0.0276,-0.1353,0.9918,-2.5024,0.4272,0.3052,
2026-07-24 18:52:05.055,6164549,0.0315,-0.1287,0.9846,-2.4414,0.3662,0.7324,
2026-07-24 18:52:05.075,6164569,0.0315,-0.1323,0.9824,-2.4414,0.1221,0.9766,
2026-07-24 18:52:05.095,6164589,0.026,-0.1366,0.9901,-2.8687,0.5493,0.9155,
2026-07-24 18:52:05.115,6164609,0.0234,-0.1342,0.9967,-3.0518,1.5259,0.7324,
2026-07-24 18:52:05.135,6164629,0.0214,-0.1344,0.9943,-2.9297,2.3804,0.6104,
2026-07-24 18:52:05.155,6164649,0.0259,-0.1337,0.9908,-2.4414,2.9297,0.6714,
2026-07-24 18:52:05.175,6164669,0.0336,-0.1333,0.9932,-1.9531,2.5635,0.9155,
2026-07-24 18:52:05.195,6164689,0.0439,-0.1357,0.9966,-1.709,1.0376,0.9766,
2026-07-24 18:52:05.215,6164709,0.038,-0.1395,0.9999,-1.77,-0.3662,0.7324,
2026-07-24 18:52:05.235,6164729,0.0281,-0.1426,1.0021,-2.1362,-0.4883,0.061,
2026-07-24 18:52:05.255,6164749,0.0264,-0.1422,0.9999,-2.3804,0.061,-0.6714,
2026-07-24 18:52:05.275,6164769,0.0364,-0.1317,0.9985,-1.6479,-0.061,-1.4038,
2026-07-24 18:52:05.295,6164789,0.0411,-0.1238,0.9995,-0.1221,-1.0986,-1.8311,
2026-07-24 18:52:05.315,6164809,0.0365,-0.1266,0.9934,1.3428,-2.0752,-2.3193,
2026-07-24 18:52:05.335,6164829,0.0333,-0.1327,0.9891,1.9531,-2.3804,-2.8687,
2026-07-24 18:52:05.355,6164849,0.0302,-0.136,0.9841,1.77,-2.2583,-3.479,
2026-07-24 18:52:05.375,6164869,0.0327,-0.1373,0.989,1.2817,-2.3193,-4.0283,
2026-07-24 18:52:05.395,6164889,0.0367,-0.1376,1.0004,0.9155,-2.7466,-4.3335,
2026-07-24 18:52:05.415,6164909,0.0319,-0.1361,1.0018,1.0986,-2.9907,-4.1504,
2026-07-24 18:52:05.435,6164929,0.021,-0.135,0.9926,1.2817,-2.4414,-3.9062,
2026-07-24 18:52:05.455,6164949,0.0177,-0.1329,0.9874,1.3428,-1.0376,-3.479,
2026-07-24 18:52:05.475,6164969,0.0134,-0.1331,0.9884,1.2207,0.7324,-3.1738,
2026-07-24 18:52:05.495,6164989,0.0114,-0.1389,0.9904,0.6104,2.4414,-2.6855,
2026-07-24 18:52:05.515,6165009,0.0138,-0.1449,0.9868,-0.4883,3.7231,-2.0142,
2026-07-24 18:52:05.535,6165029,0.0323,-0.1393,0.9935,-1.3428,3.6621,-0.8545,
2026-07-24 18:52:05.555,6165049,0.0381,-0.1389,0.9989,-1.2817,1.9531,0.3052,
2026-07-24 18:52:05.575,6165069,0.0305,-0.1423,0.9885,-0.9766,0.061,1.0986,
2026-07-24 18:52:05.595,6165089,0.0209,-0.1434,0.9824,-1.0986,-0.7324,1.5259,
2026-07-24 18:52:05.615,6165109,0.0228,-0.1361,0.9905,-1.0986,-0.4883,1.4038,
2026-07-24 18:52:05.635,6165129,0.025,-0.1339,0.994,-0.4883,-0.3052,1.0986,
2026-07-24 18:52:05.655,6165149,0.03,-0.1289,0.9998,0.4272,-0.5493,0.9766,
2026-07-24 18:52:05.675,6165169,0.0269,-0.1279,0.9984,1.8311,-1.2207,0.9155,
2026-07-24 18:52:05.695,6165189,0.0096,-0.1305,0.9908,3.2349,-1.4648,1.0986,
2026-07-24 18:52:05.715,6165209,0.001,-0.1295,0.9927,3.9673,0.061,1.3428,
2026-07-24 18:52:05.735,6165229,0.0153,-0.1254,1.0045,4.5776,2.1973,1.4648,
2026-07-24 18:52:05.755,6165249,0.0343,-0.1298,1.0062,5.0659,2.6855,1.77,
2026-07-24 18:52:05.775,6165269,0.0363,-0.1417,0.9854,4.6387,1.3428,2.0142,
2026-07-24 18:52:05.795,6165289,0.0328,-0.1587,0.9738,2.5635,-0.2441,2.3193,
2026-07-24 18:52:05.815,6165309,0.0275,-0.1602,0.985,-1.1597,-1.2207,2.2583,
2026-07-24 18:52:05.835,6165329,0.0237,-0.1473,0.9984,-4.4556,-1.5259,1.8921,
2026-07-24 18:52:05.855,6165349,0.0249,-0.1421,0.9922,-6.2866,-1.2817,1.3428,
2026-07-24 18:52:05.875,6165369,0.0365,-0.1353,0.9829,-7.2021,-1.5259,0.8545,
2026-07-24 18:52:05.895,6165389,0.0392,-0.1265,0.9734,-7.0801,-3.0518,0.7324,
2026-07-24 18:52:05.915,6165409,0.0205,-0.1251,0.9579,-6.1035,-4.6387,0.4272,
2026-07-24 18:52:05.936,6165429,0.0062,-0.1361,0.9611,-5.5542,-3.8452,-0.3052,
2026-07-24 18:52:05.956,6165449,0.0046,-0.1395,0.9763,-6.2866,-1.4038,-1.6479,
2026-07-24 18:52:05.975,6165469,0.0144,-0.1232,0.9941,-6.6528,0.8545,-3.1128,
2026-07-24 18:52:05.995,6165489,0.035,-0.1199,0.993,-5.3101,1.4648,-3.9062,
2026-07-24 18:52:06.015,6165509,0.033,-0.1304,0.9849,-3.6011,-0.1221,-4.3335,
2026-07-24 18:52:06.035,6165529,0.0165,-0.1423,0.9927,-2.9907,-1.2207,-4.6997,
2026-07-24 18:52:06.055,6165549,0.0126,-0.1526,0.9969,-3.7231,-0.6714,-5.249,
2026-07-24 18:52:06.075,6165569,0.0233,-0.1355,1.0054,-4.9438,0.0,-5.7373,
2026-07-24 18:52:06.096,6165589,0.0297,-0.1105,1.0182,-4.2114,-0.8545,-5.6763,
2026-07-24 18:52:06.116,6165609,0.0269,-0.1115,1.0116,-1.4038,-2.3193,-5.0049,
2026-07-24 18:52:06.135,6165629,0.0288,-0.1227,0.9938,0.9155,-3.7231,-4.0283,
2026-07-24 18:52:06.155,6165649,0.0321,-0.121,0.9829,1.9531,-5.4932,-2.8076,
2026-07-24 18:52:06.175,6165669,0.0355,-0.1105,0.9916,2.8687,-7.5073,-1.2817,
2026-07-24 18:52:06.195,6165689,0.0181,-0.1171,1.0039,4.0283,-9.5215,0.2441,
2026-07-24 18:52:06.215,6165709,-0.0098,-0.1343,0.9945,3.3569,-7.6904,2.2583,
2026-07-24 18:52:06.235,6165729,-0.0237,-0.1321,0.9906,1.6479,-3.3569,3.7842,
2026-07-24 18:52:06.255,6165749,-0.0109,-0.1268,0.9835,0.4272,0.4883,5.5542,
2026-07-24 18:52:06.275,6165769,0.0107,-0.1357,0.9805,-0.9766,1.8921,6.958,
2026-07-24 18:52:06.295,6165789,0.0079,-0.1553,0.991,-4.0894,2.3193,7.3242,
2026-07-24 18:52:06.315,6165809,-0.0165,-0.1704,0.9971,-8.728,4.9438,6.958,
2026-07-24 18:52:06.335,6165829,-0.0042,-0.1422,1.0073,-11.2915,8.1177,6.3477,
2026-07-24 18:52:06.355,6165849,0.0206,-0.1199,1.0022,-10.3149,8.4229,5.3711,
2026-07-24 18:52:06.375,6165869,0.0209,-0.1283,0.9808,-8.728,7.3242,4.0283,
2026-07-24 18:52:06.395,6165889,0.021,-0.1455,0.9791,-8.2397,6.4697,2.3193,
2026-07-24 18:52:06.415,6165909,0.0244,-0.1447,0.9843,-8.1787,5.249,0.1831,
2026-07-24 18:52:06.436,6165929,0.0308,-0.1158,0.9877,-5.9814,3.479,-1.709,
2026-07-24 18:52:06.456,6165949,0.0491,-0.0807,0.9941,-0.6104,-0.1831,-3.1128,
2026-07-24 18:52:06.475,6165969,0.0564,-0.0613,0.9951,7.0801,-5.6152,-3.8452,
2026-07-24 18:52:06.495,6165989,0.0533,-0.0673,0.996,14.3433,-10.7422,-4.2725,
2026-07-24 18:52:06.515,6166009,0.0459,-0.0874,1.0027,18.7988,-14.7705,-4.6997,
2026-07-24 18:52:06.535,6166029,0.0226,-0.1102,0.9926,19.9585,-16.4185,-5.0659,
2026-07-24 18:52:06.555,6166049,-0.0061,-0.1298,0.9808,18.3716,-14.5264,-5.249,
2026-07-24 18:52:06.575,6166069,-0.0205,-0.1366,0.9827,15.0146,-10.0098,-4.8828,
2026-07-24 18:52:06.595,6166089,-0.016,-0.1295,0.9971,11.7798,-5.3101,-4.0894,
2026-07-24 18:52:06.615,6166109,-0.0046,-0.125,1.0054,9.2773,-1.8921,-3.1128,
2026-07-24 18:52:06.635,6166129,0.0051,-0.1307,1.006,6.958,-0.4272,-1.9531,
2026-07-24 18:52:06.655,6166149,-0.005,-0.1407,0.9983,3.8452,1.2207,-0.9766,
2026-07-24 18:52:06.675,6166169,-0.0251,-0.1442,0.9923,0.3052,4.5776,-0.061,
2026-07-24 18:52:06.695,6166189,-0.0303,-0.1299,0.9886,-1.9531,8.7891,0.8545,
2026-07-24 18:52:06.715,6166209,-0.0056,-0.1179,0.9855,-2.2583,11.1694,1.77,
2026-07-24 18:52:06.735,6166229,0.0161,-0.1124,0.9875,-1.5259,10.376,2.4414,
2026-07-24 18:52:06.755,6166249,0.0199,-0.0977,0.9933,0.3662,7.9346,2.9297,
2026-07-24 18:52:06.775,6166269,0.0186,-0.0901,0.9974,2.9907,5.6152,3.479,
2026-07-24 18:52:06.795,6166289,0.0269,-0.1072,0.9828,5.7983,3.0518,3.9673,
2026-07-24 18:52:06.815,6166309,0.012,-0.13,0.9734,6.897,0.1221,4.3335,
2026-07-24 18:52:06.835,6166329,-0.0149,-0.1388,0.9851,5.8594,-0.6714,4.5166,
2026-07-24 18:52:06.855,6166349,-0.0167,-0.1484,0.9919,3.9062,1.3428,4.9438,
2026-07-24 18:52:06.875,6166369,-0.0038,-0.1565,0.9889,1.2207,3.3569,5.3711,
2026-07-24 18:52:06.895,6166389,-0.0087,-0.1466,0.9872,-1.709,4.5166,5.7373,
2026-07-24 18:52:06.916,6166409,-0.0005,-0.1284,0.9932,-3.0518,5.9204,6.3477,
2026-07-24 18:52:06.935,6166429,0.0248,-0.1232,1.0021,-2.6245,5.8594,7.2021,
2026-07-24 18:52:06.955,6166449,0.025,-0.1282,1.0072,-2.1362,3.6011,7.5684,
2026-07-24 18:52:06.975,6166469,0.0111,-0.1328,0.995,-2.4414,1.9531,7.2632,
2026-07-24 18:52:06.995,6166489,0.0166,-0.1359,0.979,-3.2349,2.1362,6.1646,
2026-07-24 18:52:07.015,6166509,0.0358,-0.1326,0.9794,-4.3335,1.77,4.6997,
2026-07-24 18:52:07.035,6166529,0.0303,-0.1337,0.9902,-4.5166,-0.3662,3.479,
2026-07-24 18:52:07.055,6166549,0.0095,-0.132,0.9985,-4.4556,-1.5259,2.3804,
2026-07-24 18:52:07.075,6166569,0.0059,-0.1317,0.9988,-4.0283,-0.4272,1.2207,
2026-07-24 18:52:07.095,6166589,0.0117,-0.1379,0.9897,-3.7231,1.0986,-0.3052,
2026-07-24 18:52:07.115,6166609,0.0295,-0.1307,0.9839,-4.2725,1.5869,-1.6479,
2026-07-24 18:52:07.135,6166629,0.0477,-0.1128,0.9971,-3.7231,-0.1221,-2.8076,
2026-07-24 18:52:07.155,6166649,0.052,-0.1134,1.0026,-1.77,-3.8452,-3.8452,
2026-07-24 18:52:07.175,6166669,0.0336,-0.12,0.9985,-0.1831,-7.6294,-5.127,
2026-07-24 18:52:07.195,6166689,0.016,-0.124,0.9958,0.5493,-9.1553,-6.2866,
2026-07-24 18:52:07.216,6166709,0.0052,-0.1311,0.995,0.6714,-8.8501,-6.958,
2026-07-24 18:52:07.235,6166729,0.0078,-0.1313,0.991,0.3052,-7.8125,-7.0801,
2026-07-24 18:52:07.255,6166749,0.0146,-0.1229,0.9899,-0.1221,-7.3853,-6.7749,
2026-07-24 18:52:07.275,6166769,0.0144,-0.1223,0.9962,0.0,-7.8125,-6.1035,
2026-07-24 18:52:07.295,6166789,0.0049,-0.1478,0.9906,-0.6714,-8.0566,-5.4321,
2026-07-24 18:52:07.315,6166809,-0.0148,-0.1504,0.9889,-3.6011,-6.897,-5.0049,
2026-07-24 18:52:07.336,6166829,-0.0219,-0.1301,0.9948,-5.7983,-3.9062,-4.3335,
2026-07-24 18:52:07.355,6166849,-0.0112,-0.1176,0.9907,-5.6763,-0.5493,-3.6011,
2026-07-24 18:52:07.376,6166869,0.0026,-0.114,0.9895,-4.0894,1.2817,-3.0518,
2026-07-24 18:52:07.396,6166889,-0.0112,-0.1246,1.0023,-2.2583,1.9531,-2.9297,
2026-07-24 18:52:07.416,6166909,-0.0233,-0.1292,1.0082,-1.2817,3.7842,-3.0518,
2026-07-24 18:52:07.435,6166929,-0.0098,-0.1234,0.9899,0.5493,6.958,-2.9297,
2026-07-24 18:52:07.455,6166949,0.0139,-0.1115,0.9813,2.9907,6.0425,-1.9531,
2026-07-24 18:52:07.475,6166969,0.033,-0.1064,0.9796,5.9814,2.5635,-0.6714,
2026-07-24 18:52:07.495,6166989,0.0248,-0.132,0.9808,7.2632,-0.9766,0.1221,
2026-07-24 18:52:07.515,6167009,0.0095,-0.1547,0.9883,5.6763,-2.6855,0.3662,
2026-07-24 18:52:07.535,6167029,0.0033,-0.1584,0.9933,2.9297,-3.0518,0.7324,
2026-07-24 18:52:07.555,6167049,0.002,-0.1401,0.9955,1.4038,-2.9907,2.0752,
2026-07-24 18:52:07.575,6167069,0.0114,-0.1296,0.9897,1.4648,-3.8452,3.479,
2026-07-24 18:52:07.595,6167089,0.0039,-0.1394,0.9834,1.0986,-4.5776,4.2114,
2026-07-24 18:52:07.615,6167109,-0.012,-0.1432,0.9839,-0.3662,-3.418,4.3945,
2026-07-24 18:52:07.635,6167129,-0.0181,-0.1289,0.9952,-1.0986,-0.9155,4.3335,
2026-07-24 18:52:07.655,6167149,-0.0001,-0.1113,0.9963,0.2441,0.1221,4.2114,
2026-07-24 18:52:07.675,6167169,0.019,-0.1173,0.9912,2.0142,-1.0376,3.7842,
2026-07-24 18:52:07.695,6167189,0.0187,-0.1263,0.9862,2.8076,-2.9907,2.8687,
2026-07-24 18:52:07.715,6167209,-0.0051,-0.1425,0.9802,2.1362,-2.6245,1.3428,
2026-07-24 18:52:07.736,6167229,-0.0125,-0.1481,0.9897,0.2441,-0.2441,-0.7324,
2026-07-24 18:52:07.755,6167249,-0.0067,-0.1379,0.9926,-0.7935,2.0142,-3.479,
2026-07-24 18:52:07.775,6167269,-0.0109,-0.137,0.9862,-1.2817,4.0283,-6.2256,
2026-07-24 18:52:07.795,6167289,-0.0103,-0.1266,0.9932,-1.1597,5.8594,-8.1177,
2026-07-24 18:52:07.815,6167309,0.0114,-0.1158,0.9922,-0.1831,5.6763,-9.5215,
2026-07-24 18:52:07.835,6167329,0.0284,-0.1223,0.9828,0.7935,3.1738,-10.9253,
2026-07-24 18:52:07.855,6167349,0.0276,-0.1486,0.9691,-0.1221,0.1221,-12.5122,
2026-07-24 18:52:07.875,6167369,0.0198,-0.1652,0.968,-2.9907,-2.0752,-13.7939,
2026-07-24 18:52:07.896,6167389,0.0221,-0.1515,0.979,-5.0659,-3.6621,-14.2822,
2026-07-24 18:52:07.915,6167409,0.0348,-0.1283,0.9924,-4.3945,-6.4087,-14.2212,
2026-07-24 18:52:07.935,6167429,0.0258,-0.1212,0.9934,-2.1973,-9.3994,-14.0381,
2026-07-24 18:52:07.956,6167449,-0.022,-0.1315,0.988,-0.4883,-9.6436,-13.6719,
2026-07-24 18:52:07.975,6167469,-0.035,-0.1344,0.9916,0.1831,-6.7749,-12.4512,
2026-07-24 18:52:07.995,6167489,-0.0162,-0.1354,0.9797,0.4883,-3.2959,-10.1318,
2026-07-24 18:52:08.015,6167509,0.0055,-0.1337,0.9814,0.5493,-2.2583,-7.3242,
2026-07-24 18:52:08.035,6167529,0.0084,-0.1335,0.9998,0.7935,-3.3569,-4.3335,
2026-07-24 18:52:08.055,6167549,-0.004,-0.1405,1.0059,1.1597,-4.2114,-1.9531,
2026-07-24 18:52:08.075,6167569,-0.0151,-0.1545,0.9974,0.7935,-3.2959,-0.1831,
2026-07-24 18:52:08.095,6167589,-0.0085,-0.151,0.9955,-0.5493,-0.9766,0.8545,
2026-07-24 18:52:08.115,6167609,-0.0018,-0.1376,1.004,-1.5869,0.6104,1.709,
2026-07-24 18:52:08.135,6167629,-0.006,-0.129,1.007,-1.709,1.3428,2.3193,
2026-07-24 18:52:08.155,6167649,-0.0109,-0.1276,1.0059,-1.2207,2.0752,3.1128,
2026-07-24 18:52:08.175,6167669,-0.0165,-0.1313,1.0039,-0.9155,3.479,3.6011,
2026-07-24 18:52:08.195,6167689,-0.0228,-0.1366,1.002,-0.9155,5.3101,3.9673,
2026-07-24 18:52:08.215,6167709,-0.0111,-0.132,0.9965,-0.9766,7.3242,4.3335,
2026-07-24 18:52:08.235,6167729,0.0084,-0.1252,0.9921,-0.3662,7.8735,4.9438,
2026-07-24 18:52:08.255,6167749,0.0134,-0.1265,0.9858,0.8545,6.5918,5.3101,
2026-07-24 18:52:08.275,6167769,0.0099,-0.1379,0.98,1.5869,4.8218,5.188,
2026-07-24 18:52:08.295,6167789,0.0109,-0.1362,0.9823,1.1597,3.8452,4.6387,
2026-07-24 18:52:08.315,6167809,0.016,-0.1174,0.9969,0.8545,3.0518,3.7231,
2026-07-24 18:52:08.335,6167829,0.0035,-0.1133,1.0059,2.0142,2.0142,2.6245,
2026-07-24 18:52:08.355,6167849,-0.0081,-0.131,0.9915,2.9297,2.2583,1.5869,
2026-07-24 18:52:08.375,6167869,-0.0127,-0.1421,0.9807,1.8311,3.8452,0.7324,
2026-07-24 18:52:08.395,6167889,-0.0004,-0.1407,0.9816,-0.2441,5.7373,0.3052,
2026-07-24 18:52:08.415,6167909,0.0116,-0.1357,0.9852,-2.0142,6.0425,0.061,
2026-07-24 18:52:08.435,6167929,0.01,-0.1315,0.9821,-3.2349,5.3711,-0.3662,
2026-07-24 18:52:08.455,6167949,0.0111,-0.1265,0.9802,-4.0283,5.0049,-1.0986,
2026-07-24 18:52:08.475,6167969,0.0184,-0.1244,0.9851,-4.4556,4.5776,-2.1973,
2026-07-24 18:52:08.495,6167989,0.0239,-0.1292,0.988,-4.8218,3.54,-3.54,
2026-07-24 18:52:08.515,6168009,0.0168,-0.132,0.9847,-5.4932,1.8921,-4.8218,
2026-07-24 18:52:08.535,6168029,-0.0001,-0.1289,0.9868,-6.1035,1.0376,-5.9204,
2026-07-24 18:52:08.555,6168049,-0.0082,-0.1292,0.9958,-5.9814,1.5869,-6.3477,
2026-07-24 18:52:08.575,6168069,-0.0077,-0.1285,1.0046,-5.188,2.5635,-5.9814,
2026-07-24 18:52:08.595,6168089,0.0018,-0.1261,1.0105,-3.9673,2.9907,-5.127,
2026-07-24 18:52:08.615,6168109,0.0149,-0.1195,1.0157,-2.2583,2.0142,-3.8452,
2026-07-24 18:52:08.635,6168129,0.0212,-0.1155,1.0096,-0.1831,-0.4883,-2.7466,
2026-07-24 18:52:08.655,6168149,0.0065,-0.115,1.005,2.7466,-4.0283,-1.6479,
2026-07-24 18:52:08.675,6168169,-0.0068,-0.1173,1.0076,4.2725,-4.0283,-1.2817,
2026-07-24 18:52:08.695,6168189,-0.01,-0.1184,1.0051,5.188,-2.9297,-1.2207,
2026-07-24 18:52:08.716,6168209,-0.005,-0.1196,0.9901,5.6152,-2.1362,-0.8545,
2026-07-24 18:52:08.735,6168229,0.0098,-0.1227,0.9869,5.6763,-2.7466,-0.4272,
2026-07-24 18:52:08.755,6168249,0.0187,-0.1219,0.9891,5.3101,-4.7607,-0.1831,
2026-07-24 18:52:08.775,6168269,0.0103,-0.121,0.9786,4.3945,-6.3477,-0.061,
2026-07-24 18:52:08.795,6168289,-0.0037,-0.1205,0.9691,3.1738,-6.1646,-0.061,
2026-07-24 18:52:08.815,6168309,-0.0146,-0.1254,0.9775,1.4038,-4.5776,-0.4272,
2026-07-24 18:52:08.836,6168329,-0.042,-0.1274,0.9974,-0.5493,-0.7324,-0.6714,
2026-07-24 18:52:08.855,6168349,-0.0377,-0.1332,0.9926,-2.3193,4.0894,-0.7324,
2026-07-24 18:52:08.875,6168369,0.0068,-0.1427,0.9836,-4.3945,5.4932,-0.4883,
2026-07-24 18:52:08.895,6168389,0.0397,-0.1492,0.983,-6.897,2.3193,-0.061,
2026-07-24 18:52:08.915,6168409,0.0262,-0.1417,0.9924,-8.4229,-1.3428,0.1221,
2026-07-24 18:52:08.935,6168429,-0.0056,-0.1239,0.9978,-7.9346,-1.9531,0.1831,
2026-07-24 18:52:08.955,6168449,-0.0164,-0.103,0.9908,-5.3101,-0.1221,0.4272,
2026-07-24 18:52:08.975,6168469,0.0,-0.0945,0.9851,-1.4648,0.9155,0.6714,
2026-07-24 18:52:08.995,6168489,0.0146,-0.0963,0.9849,1.8311,0.1221,0.7324,
2026-07-24 18:52:09.015,6168509,0.0099,-0.1055,0.9899,3.9062,-1.1597,0.7935,
2026-07-24 18:52:09.035,6168529,0.004,-0.1257,0.9873,3.7842,-1.5869,0.7324,
2026-07-24 18:52:09.055,6168549,0.0046,-0.147,0.9786,1.2207,-1.5869,0.5493,
2026-07-24 18:52:09.075,6168569,0.0022,-0.1503,0.9828,-2.0142,-1.2207,0.4272,
2026-07-24 18:52:09.095,6168589,0.0068,-0.1473,0.9867,-4.6997,-0.6104,0.5493,
2026-07-24 18:52:09.115,6168609,0.0123,-0.1385,0.9834,-6.7139,-0.7324,0.6714,
2026-07-24 18:52:09.135,6168629,0.0139,-0.1226,0.9896,-7.5073,-1.2817,0.7324,
2026-07-24 18:52:09.155,6168649,0.0155,-0.1156,0.9958,-7.3242,-2.1362,0.5493,
2026-07-24 18:52:09.175,6168669,0.004,-0.1279,0.9891,-7.6904,-2.8687,0.1221,
2026-07-24 18:52:09.195,6168689,0.0006,-0.1238,0.9963,-8.3008,-2.5024,-0.061,
2026-07-24 18:52:09.216,6168709,-0.0026,-0.1184,1.0049,-8.1787,-1.6479,-0.1831,
2026-07-24 18:52:09.235,6168729,-0.0038,-0.1125,1.0063,-7.1411,-0.4883,-0.3052,
2026-07-24 18:52:09.255,6168749,0.0001,-0.1044,1.01,-5.0049,0.7324,-0.3052,
2026-07-24 18:52:09.275,6168769,0.0039,-0.1034,1.0067,-2.1362,1.5259,-0.1221,
2026-07-24 18:52:09.295,6168789,0.004,-0.1023,0.9976,0.4883,1.8921,0.0,
2026-07-24 18:52:09.315,6168809,0.0042,-0.0933,0.9906,2.9907,2.1362,-0.1831,
2026-07-24 18:52:09.335,6168829,0.0043,-0.0859,0.986,5.8594,2.1973,-0.3052,
2026-07-24 18:52:09.356,6168849,0.0095,-0.0917,0.9871,8.728,2.0142,-0.1221,
2026-07-24 18:52:09.375,6168869,0.0195,-0.105,0.995,10.6812,1.2207,0.3662,
2026-07-24 18:52:09.395,6168889,0.0199,-0.1115,1.0009,11.2305,-0.5493,0.7324,
2026-07-24 18:52:09.415,6168909,0.0135,-0.1187,1.0033,10.9253,-2.0142,1.0376,
2026-07-24 18:52:09.435,6168929,0.004,-0.1283,1.0,9.7656,-2.3804,1.1597,
2026-07-24 18:52:09.455,6168949,-0.0039,-0.1404,0.9962,7.4463,-1.5259,1.1597,
2026-07-24 18:52:09.475,6168969,-0.0011,-0.139,0.9945,3.7842,-0.1221,0.9766,
2026-07-24 18:52:09.495,6168989,0.0045,-0.1312,0.9957,0.0,0.8545,0.7935,
2026-07-24 18:52:09.515,6169009,0.01,-0.1177,0.996,-2.8076,1.2817,0.4883,
2026-07-24 18:52:09.535,6169029,0.0132,-0.1066,0.9966,-4.0283,1.1597,0.3052,
2026-07-24 18:52:09.555,6169049,0.0061,-0.1011,0.998,-3.8452,0.7935,0.1221,
2026-07-24 18:52:09.575,6169069,-0.0037,-0.1002,0.9966,-2.9907,1.2817,-0.3052,
2026-07-24 18:52:09.595,6169089,-0.0051,-0.1013,0.9965,-2.0142,2.6855,-0.7935,
2026-07-24 18:52:09.615,6169109,-0.0009,-0.0983,0.9967,-0.9766,4.1504,-1.4038,
2026-07-24 18:52:09.635,6169129,0.004,-0.099,0.9958,0.1831,4.8828,-1.77,
2026-07-24 18:52:09.655,6169149,0.0087,-0.1012,0.9957,1.2817,4.8218,-2.0752,
2026-07-24 18:52:09.675,6169169,0.0063,-0.1134,0.9905,2.0142,4.2725,-2.2583,
2026-07-24 18:52:09.695,6169189,0.0034,-0.1201,0.9869,1.6479,4.1504,-2.5024,
2026-07-24 18:52:09.715,6169209,0.0048,-0.1196,0.9871,0.7935,4.2114,-2.5635,
2026-07-24 18:52:09.735,6169229,0.0117,-0.1158,0.9897,0.0,3.9062,-2.4414,
2026-07-24 18:52:09.755,6169249,0.0194,-0.1095,1.0006,-0.1831,2.9297,-2.1973,
2026-07-24 18:52:09.775,6169269,0.0118,-0.109,1.01,0.061,1.1597,-1.8921,
2026-07-24 18:52:09.795,6169289,-0.0004,-0.1193,1.0088,0.1831,0.3052,-1.709,
2026-07-24 18:52:09.815,6169309,-0.001,-0.1223,0.9984,-0.3662,0.7324,-1.5259,
2026-07-24 18:52:09.836,6169329,0.0057,-0.1188,0.9934,-1.0376,1.2207,-1.1597,
2026-07-24 18:52:09.855,6169349,0.0031,-0.1154,0.9941,-1.1597,1.0376,-0.7324,
2026-07-24 18:52:09.875,6169369,-0.0033,-0.1088,0.9956,0.1221,1.709,-0.2441,
2026-07-24 18:52:09.895,6169389,0.001,-0.1058,0.9874,1.4648,2.3193,0.061,
2026-07-24 18:52:09.915,6169409,0.0223,-0.1219,0.9797,1.8311,1.5259,0.1221,
2026-07-24 18:52:09.935,6169429,0.0491,-0.1459,0.9814,-0.2441,-2.0752,-0.1831,
2026-07-24 18:52:09.956,6169449,0.0441,-0.1432,0.9883,-2.7466,-6.4697,-0.6714,
2026-07-24 18:52:09.975,6169469,0.015,-0.1298,0.9977,-3.8452,-8.3618,-0.7935,
2026-07-24 18:52:09.995,6169489,-0.0085,-0.1201,1.002,-3.54,-7.3242,-0.6104,
2026-07-24 18:52:10.015,6169509,-0.021,-0.109,0.9969,-2.2583,-4.3945,0.0,
2026-07-24 18:52:10.035,6169529,-0.0142,-0.109,0.9888,-0.4883,-1.5259,0.8545,
2026-07-24 18:52:10.055,6169549,-0.0033,-0.1207,0.985,0.3052,0.1831,1.4648,
2026-07-24 18:52:10.075,6169569,0.0031,-0.1285,0.9862,-0.1221,0.9766,1.77,
2026-07-24 18:52:10.095,6169589,0.0131,-0.1267,0.9927,-0.6714,0.9766,1.8311,
2026-07-24 18:52:10.115,6169609,0.0231,-0.1229,0.9974,-0.6104,-0.061,1.5259,
2026-07-24 18:52:10.135,6169629,0.0233,-0.1205,0.9996,0.061,-1.2207,0.9766,
2026-07-24 18:52:10.155,6169649,0.0123,-0.1201,0.9977,0.8545,-1.2207,0.3052,
2026-07-24 18:52:10.175,6169669,0.0068,-0.1235,0.9924,1.0376,-0.3052,-0.6714,
2026-07-24 18:52:10.195,6169689,0.0099,-0.1288,0.99,0.3662,0.6104,-1.6479,
2026-07-24 18:52:10.215,6169709,0.0138,-0.1306,0.9893,-0.8545,0.8545,-2.4414,
2026-07-24 18:52:10.235,6169729,0.0173,-0.1237,0.9946,-1.8311,0.4272,-3.0518,
2026-07-24 18:52:10.256,6169749,0.0164,-0.1198,0.9961,-2.0752,-0.1831,-3.1128,
2026-07-24 18:52:10.275,6169769,0.009,-0.116,0.9894,-1.709,-0.1831,-2.9297,
2026-07-24 18:52:10.295,6169789,0.0099,-0.1113,0.9866,-0.7324,0.2441,-2.5635,
2026-07-24 18:52:10.315,6169809,0.0096,-0.1138,0.9839,0.1831,0.7324,-2.3804,
2026-07-24 18:52:10.335,6169829,0.0051,-0.1171,0.9884,0.6714,1.5259,-2.4414,
2026-07-24 18:52:10.355,6169849,0.0084,-0.1154,0.9944,0.9155,2.2583,-2.6855,
2026-07-24 18:52:10.375,6169869,0.021,-0.1201,1.001,0.8545,2.0752,-2.5635,
2026-07-24 18:52:10.395,6169889,0.0337,-0.1289,1.0082,0.2441,0.061,-2.0142,
2026-07-24 18:52:10.415,6169909,0.0333,-0.1261,1.0353,-0.4883,-2.6855,-1.5259,
2026-07-24 18:52:10.435,6169929,0.0121,-0.1238,1.0275,-0.4883,-4.3945,-1.1597,
2026-07-24 18:52:10.455,6169949,-0.0093,-0.1326,1.0071,-0.2441,-3.2349,-1.0376,
2026-07-24 18:52:10.475,6169969,-0.0183,-0.1316,1.0,-0.3662,0.6714,-1.4038,
2026-07-24 18:52:10.495,6169989,-0.0073,-0.1329,0.9889,-0.6714,5.127,-1.8921,
2026-07-24 18:52:10.515,6170009,0.0074,-0.1414,0.9733,-1.5869,7.6904,-2.1362,
2026-07-24 18:52:10.535,6170029,0.0142,-0.1438,0.9651,-3.1738,8.1787,-2.1973,
2026-07-24 18:52:10.555,6170049,0.0133,-0.15,0.9664,-4.8828,7.6904,-1.77,
2026-07-24 18:52:10.575,6170069,0.0107,-0.1525,0.97,-6.5308,7.019,-1.0986,
2026-07-24 18:52:10.595,6170089,0.0085,-0.1459,0.9747,-7.4463,6.5308,-0.4272,
2026-07-24 18:52:10.615,6170109,0.0071,-0.1331,0.9777,-7.0801,6.4087,0.2441,
2026-07-24 18:52:10.635,6170129,0.028,-0.127,0.9851,-5.188,5.9814,1.1597,
2026-07-24 18:52:10.655,6170149,0.047,-0.1267,1.0018,-2.6855,3.1128,2.1362,
2026-07-24 18:52:10.675,6170169,0.057,-0.1277,1.007,-0.1221,-1.9531,3.2349,
2026-07-24 18:52:10.695,6170189,0.0387,-0.1377,0.9799,1.9531,-7.5073,4.2725,
2026-07-24 18:52:10.715,6170209,-0.0125,-0.1487,0.9481,2.6245,-9.8267,5.3101,
2026-07-24 18:52:10.735,6170229,-0.0465,-0.1393,0.9521,2.5635,-6.1035,6.2866,
2026-07-24 18:52:10.755,6170249,-0.0304,-0.1174,0.994,3.9062,1.2207,7.1411,
2026-07-24 18:52:10.775,6170269,0.0186,-0.1206,1.0264,6.897,6.3477,7.6904,
2026-07-24 18:52:10.795,6170289,0.0564,-0.1584,1.0258,8.728,6.1646,7.8125,
2026-07-24 18:52:10.815,6170309,0.0569,-0.1912,1.0148,6.6528,2.1362,7.5684,
2026-07-24 18:52:10.835,6170329,0.0271,-0.212,0.9855,1.77,-1.4038,7.3242,
2026-07-24 18:52:10.855,6170349,0.0007,-0.2252,0.9418,-4.5776,-1.5259,7.0801,
2026-07-24 18:52:10.875,6170369,-0.0211,-0.2106,0.9097,-10.8032,1.5869,6.4087,
2026-07-24 18:52:10.895,6170389,-0.0208,-0.1599,0.9325,-14.4043,6.7139,6.0425,
2026-07-24 18:52:10.915,6170409,0.0219,-0.1067,1.0074,-12.5732,10.6201,6.0425,
2026-07-24 18:52:10.935,6170429,0.0785,-0.0872,1.0776,-5.249,8.606,6.1035,
2026-07-24 18:52:10.955,6170449,0.1001,-0.1267,1.0948,3.0518,0.3052,5.4932,
2026-07-24 18:52:10.975,6170469,0.0598,-0.1913,1.0334,6.5308,-9.5825,4.0283,
2026-07-24 18:52:10.995,6170489,0.0178,-0.2312,0.9579,3.479,-14.5874,3.0518,
2026-07-24 18:52:11.015,6170509,0.0114,-0.2217,0.933,-2.5024,-15.564,3.2349,
2026-07-24 18:52:11.035,6170529,0.0021,-0.1832,0.9381,-6.2256,-15.5029,4.3945,
2026-07-24 18:52:11.055,6170549,-0.0122,-0.161,0.9387,-5.6763,-14.4043,6.1035,
2026-07-24 18:52:11.076,6170569,-0.0293,-0.1414,0.947,-2.9907,-11.5967,7.7515,
2026-07-24 18:52:11.095,6170589,-0.0372,-0.1323,0.9463,2.8076,-4.7607,9.2773,
2026-07-24 18:52:11.115,6170609,-0.0316,-0.139,0.9404,5.4932,-0.1221,9.9487,
2026-07-24 18:52:11.135,6170629,-0.0071,-0.1638,0.9218,5.9814,2.0752,10.8643,
2026-07-24 18:52:11.155,6170649,0.006,-0.1958,0.889,3.0518,1.6479,12.0239,
2026-07-24 18:52:11.175,6170669,0.0004,-0.2206,0.8672,-2.5024,1.0376,13.6719,
2026-07-24 18:52:11.195,6170689,0.0024,-0.241,0.859,-9.5215,0.4883,15.564,
2026-07-24 18:52:11.215,6170709,0.0055,-0.2498,0.8578,-16.8457,-0.1831,17.5171,
2026-07-24 18:52:11.235,6170729,0.0004,-0.2394,0.8562,-23.1323,-0.8545,19.4092,
2026-07-24 18:52:11.255,6170749,-0.0055,-0.2118,0.8656,-26.5503,-0.6104,20.874,
2026-07-24 18:52:11.275,6170769,-0.0188,-0.1825,0.8756,-26.9775,0.7935,21.2402,
2026-07-24 18:52:11.295,6170789,-0.0338,-0.1752,0.8766,-26.001,4.0283,21.1182,
2026-07-24 18:52:11.315,6170809,-0.0259,-0.1646,0.908,-24.1089,7.2021,20.874,
2026-07-24 18:52:11.335,6170829,0.0208,-0.1392,0.9781,-19.5923,6.6528,20.9961,
2026-07-24 18:52:11.355,6170849,0.0833,-0.1276,1.038,-12.6953,-0.4272,21.0571,
2026-07-24 18:52:11.375,6170869,0.0922,-0.1591,1.0507,-7.1411,-9.8877,19.9585,
2026-07-24 18:52:11.395,6170889,0.0503,-0.2051,1.0565,-5.7373,-14.6484,17.395,
2026-07-24 18:52:11.415,6170909,-0.0238,-0.2318,1.0789,-7.8125,-10.8643,13.977,
2026-07-24 18:52:11.435,6170929,-0.0541,-0.1898,1.1854,-8.2397,-0.1221,10.5591,
2026-07-24 18:52:11.455,6170949,0.0391,-0.1024,1.3485,-0.9766,5.4932,6.7749,
2026-07-24 18:52:11.475,6170969,0.116,-0.0856,1.4426,10.498,0.3052,2.0752,
2026-07-24 18:52:11.495,6170989,0.0598,-0.1782,1.355,14.4043,-4.4556,-2.5024,
2026-07-24 18:52:11.515,6171009,-0.0177,-0.2603,1.1843,7.1411,-1.0376,-5.3101,
2026-07-24 18:52:11.535,6171029,-0.0344,-0.2488,1.0729,-2.3804,6.2866,-4.9438,
2026-07-24 18:52:11.555,6171049,0.0001,-0.1864,1.0586,-6.5918,11.1694,-2.4414,
2026-07-24 18:52:11.575,6171069,0.0583,-0.1298,1.0984,-4.5166,10.1318,0.2441,
2026-07-24 18:52:11.595,6171089,0.0927,-0.1221,1.0973,-0.1831,4.0894,1.0986,
2026-07-24 18:52:11.615,6171109,0.0376,-0.1326,1.0571,2.2583,-0.4883,-0.5493,
2026-07-24 18:52:11.635,6171129,0.0228,-0.1218,1.0127,3.6621,-0.1221,-3.0518,
2026-07-24 18:52:11.655,6171149,0.0356,-0.1217,0.9412,5.249,1.3428,-5.3711,
2026-07-24 18:52:11.675,6171169,0.0394,-0.1154,0.88,6.5918,1.0376,-6.897,
2026-07-24 18:52:11.695,6171189,0.0237,-0.1022,0.8405,8.1177,0.1221,-7.8125,
2026-07-24 18:52:11.715,6171209,0.0031,-0.101,0.8118,9.8877,0.8545,-8.606,
2026-07-24 18:52:11.735,6171229,-0.005,-0.1034,0.8094,11.0474,3.6621,-9.6436,
2026-07-24 18:52:11.755,6171249,-0.011,-0.1056,0.8268,11.4746,7.2021,-10.5591,
2026-07-24 18:52:11.775,6171269,0.0122,-0.0966,0.832,11.7798,10.7422,-11.1084,
2026-07-24 18:52:11.795,6171289,0.0667,-0.0874,0.8181,12.6343,10.7422,-11.3525,
2026-07-24 18:52:11.815,6171309,0.0847,-0.0844,0.8246,14.0381,5.0659,-11.8408,
2026-07-24 18:52:11.835,6171329,0.0597,-0.0857,0.8573,15.4419,-1.4648,-12.3901,
2026-07-24 18:52:11.855,6171349,0.0389,-0.0813,0.9265,16.6016,-5.127,-13.2446,
2026-07-24 18:52:11.875,6171369,0.0431,-0.08,1.0157,18.3716,-6.7749,-13.6108,
2026-07-24 18:52:11.895,6171389,0.0452,-0.1106,1.0745,19.7144,-8.728,-13.855,
2026-07-24 18:52:11.915,6171409,0.0211,-0.1263,1.1371,18.4326,-9.6436,-14.3433,
2026-07-24 18:52:11.935,6171429,0.0215,-0.1233,1.2136,16.4795,-7.6904,-14.9536,
2026-07-24 18:52:11.955,6171449,0.0664,-0.1442,1.2489,15.3809,-5.8594,-15.686,
2026-07-24 18:52:11.975,6171469,0.0702,-0.1753,1.2374,12.8174,-8.5449,-16.2964,
2026-07-24 18:52:11.995,6171489,0.0104,-0.1719,1.248,8.4839,-10.8032,-15.9302,
2026-07-24 18:52:12.015,6171509,0.062,-0.1096,1.3503,5.9814,-8.7891,-14.0381,
2026-07-24 18:52:12.035,6171529,0.2151,-0.0592,1.4086,10.0098,-15.3198,-10.9253,
2026-07-24 18:52:12.055,6171549,0.2626,-0.0802,1.3116,16.8457,-38.5132,-7.3853,
2026-07-24 18:52:12.075,6171569,0.0509,-0.1927,1.0574,18.2495,-62.8662,-4.5166,
2026-07-24 18:52:12.095,6171589,-0.2383,-0.2759,0.8719,8.1787,-61.4624,-2.2583,
2026-07-24 18:52:12.115,6171609,-0.3484,-0.2438,0.8627,-7.8735,-30.5176,0.6104,
2026-07-24 18:52:12.135,6171629,-0.2587,-0.1094,0.9392,-16.6016,9.9487,5.0659,
2026-07-24 18:52:12.155,6171649,-0.0842,0.0304,1.0148,-10.5591,37.6587,10.6201,
2026-07-24 18:52:12.175,6171669,-0.0028,0.0339,0.9399,6.5308,44.6777,15.0146,
2026-07-24 18:52:12.195,6171689,-0.0465,-0.0563,0.7954,20.752,43.9453,17.334,
2026-07-24 18:52:12.215,6171709,-0.0942,-0.121,0.6974,25.6348,47.6685,19.2871,
2026-07-24 18:52:12.235,6171729,-0.0767,-0.1224,0.6726,23.9258,55.542,21.4844,
2026-07-24 18:52:12.255,6171749,-0.0142,-0.1014,0.658,22.1558,60.2417,24.1699,
2026-07-24 18:52:12.275,6171769,0.0415,-0.1134,0.6174,21.9727,57.9224,26.6113,
2026-07-24 18:52:12.295,6171789,0.1075,-0.1532,0.6086,20.6909,50.6592,28.0762,
2026-07-24 18:52:12.315,6171809,0.1659,-0.1915,0.6282,12.3291,28.6865,27.5879,
2026-07-24 18:52:12.335,6171829,0.1333,-0.2217,0.6396,3.1128,12.5732,26.6724,
2026-07-24 18:52:12.355,6171849,0.0739,-0.2307,0.6852,-6.7749,3.2349,25.8789,
2026-07-24 18:52:12.375,6171869,0.0809,-0.2136,0.7643,-14.6484,-3.2349,24.9023,
2026-07-24 18:52:12.395,6171889,0.1249,-0.1893,0.8326,-19.2871,-12.6953,22.9492,
2026-07-24 18:52:12.415,6171909,0.1512,-0.1805,0.9039,-21.7895,-25.0244,19.8364,
2026-07-24 18:52:12.435,6171929,0.1239,-0.2147,0.9431,-24.9634,-35.5225,15.9302,
2026-07-24 18:52:12.455,6171949,0.0487,-0.2441,0.9598,-31.0669,-38.269,11.9019,
2026-07-24 18:52:12.475,6171969,0.001,-0.1996,1.0217,-35.0342,-33.2031,8.4229,
2026-07-24 18:52:12.495,6171989,0.0016,-0.1165,1.1321,-31.189,-25.3906,5.188,
2026-07-24 18:52:12.515,6172009,0.0153,-0.087,1.1982,-21.4844,-17.8833,2.0142,
2026-07-24 18:52:12.535,6172029,0.0488,-0.0713,1.278,-9.8267,-12.3901,-0.9155,
2026-07-24 18:52:12.555,6172049,0.1108,0.0068,1.4392,7.6904,-12.3901,-3.6621,
2026-07-24 18:52:12.575,6172069,0.1152,-0.0186,1.5175,25.2686,-16.1133,-7.6904,
2026-07-24 18:52:12.595,6172089,0.0068,-0.1993,1.4359,27.4048,-12.5732,-12.5732,
2026-07-24 18:52:12.615,6172109,-0.0605,-0.3206,1.3093,12.7563,0.0,-16.2964,
2026-07-24 18:52:12.635,6172129,0.0027,-0.2479,1.2797,-2.4414,9.7656,-18.3716,
2026-07-24 18:52:12.655,6172149,0.1028,-0.1118,1.2976,-4.8218,6.958,-18.7378,
2026-07-24 18:52:12.675,6172169,0.1293,-0.0675,1.2303,1.6479,-4.7607,-17.5171,
2026-07-24 18:52:12.695,6172189,0.0802,-0.0824,1.1262,8.1177,-15.686,-15.1367,
2026-07-24 18:52:12.715,6172209,0.0245,-0.0946,1.0184,12.085,-20.874,-12.5122,
2026-07-24 18:52:12.735,6172229,-0.0193,-0.1028,0.903,13.4277,-20.5078,-10.437,
2026-07-24 18:52:12.755,6172249,-0.0508,-0.1143,0.7843,12.3901,-15.3198,-9.0332,
2026-07-24 18:52:12.775,6172269,-0.0642,-0.1193,0.7211,10.0708,-7.5073,-7.8125,
2026-07-24 18:52:12.795,6172289,-0.0752,-0.1086,0.7128,8.4229,1.8921,-6.6528,
2026-07-24 18:52:12.815,6172309,-0.0844,-0.1041,0.7245,7.2632,12.2681,-5.249,
2026-07-24 18:52:12.835,6172329,-0.0228,-0.121,0.7103,5.188,20.3857,-3.3569,
2026-07-24 18:52:12.855,6172349,0.024,-0.1228,0.6931,1.8921,22.522,-1.2207,
2026-07-24 18:52:12.875,6172369,0.0585,-0.1218,0.7106,-1.5259,19.4092,0.9155,
2026-07-24 18:52:12.895,6172389,0.0693,-0.1366,0.7653,-4.7607,13.0615,2.8076,
2026-07-24 18:52:12.915,6172409,0.0486,-0.1326,0.864,-8.1177,6.3477,4.2725,
2026-07-24 18:52:12.935,6172429,0.0428,-0.1023,0.9712,-9.3994,2.4414,5.4321,
2026-07-24 18:52:12.955,6172449,0.0687,-0.1055,1.0509,-6.6528,-0.6714,6.2866,
2026-07-24 18:52:12.975,6172469,0.0571,-0.1434,1.0615,-4.0894,-4.3945,5.9204,
2026-07-24 18:52:12.995,6172489,0.0378,-0.1575,1.0847,-4.6387,-5.0659,4.5166,
2026-07-24 18:52:13.015,6172509,0.0564,-0.113,1.183,-5.3711,-2.8076,2.6245,
2026-07-24 18:52:13.035,6172529,0.0625,-0.1046,1.2596,-1.8311,-1.9531,0.6714,
2026-07-24 18:52:13.055,6172549,0.0526,-0.1333,1.292,2.1362,-1.8311,-0.9155,
2026-07-24 18:52:13.075,6172569,0.1013,-0.1016,1.3942,4.3945,-2.1973,-1.9531,
2026-07-24 18:52:13.095,6172589,0.1678,-0.0925,1.427,9.5825,-8.9111,-2.6245,
2026-07-24 18:52:13.115,6172609,0.1517,-0.1545,1.2823,13.1836,-22.1558,-3.1128,
2026-07-24 18:52:13.135,6172629,0.061,-0.2124,1.0908,9.6436,-32.8369,-3.0518,
2026-07-24 18:52:13.155,6172649,-0.0493,-0.2251,0.9741,0.6714,-32.959,-2.5024,
2026-07-24 18:52:13.175,6172669,-0.1039,-0.1753,0.9608,-8.9111,-21.9116,-1.6479,
2026-07-24 18:52:13.195,6172689,-0.0719,-0.0981,1.0093,-13.1226,-6.897,-0.1831,
2026-07-24 18:52:13.215,6172709,-0.0125,-0.0175,1.0599,-9.7656,2.2583,1.709,
2026-07-24 18:52:13.235,6172729,0.0044,-0.0154,1.0035,-0.1831,3.2959,3.6011,
2026-07-24 18:52:13.255,6172749,-0.0472,-0.0892,0.8519,7.3853,2.8076,4.7607,
2026-07-24 18:52:13.275,6172769,-0.1018,-0.134,0.7332,7.0801,7.9956,5.8594,
2026-07-24 18:52:13.295,6172789,-0.1252,-0.1447,0.6644,1.8921,18.8599,7.5684,
2026-07-24 18:52:13.315,6172809,-0.1124,-0.1306,0.6223,-3.6011,31.311,9.7656,
2026-07-24 18:52:13.335,6172829,-0.0684,-0.1044,0.6101,-6.7139,41.748,12.3901,
2026-07-24 18:52:13.355,6172849,-0.0039,-0.0959,0.6255,-7.1411,46.5088,14.6484,
2026-07-24 18:52:13.375,6172869,0.0676,-0.1035,0.6788,-6.4697,43.9453,16.1133,
2026-07-24 18:52:13.395,6172889,0.098,-0.1277,0.7365,-5.9204,34.4849,15.8691,
2026-07-24 18:52:13.415,6172909,0.0857,-0.1674,0.7804,-7.5684,22.8882,14.5264,
2026-07-24 18:52:13.435,6172929,0.0736,-0.1692,0.8365,-11.5356,13.3667,12.8784,
2026-07-24 18:52:13.455,6172949,0.0721,-0.1573,0.8879,-14.7705,5.9814,11.2305,
2026-07-24 18:52:13.475,6172969,0.0653,-0.1508,0.9247,-15.9912,-0.8545,9.8877,
2026-07-24 18:52:13.495,6172989,0.0533,-0.1586,0.9331,-16.1743,-6.2256,8.8501,
2026-07-24 18:52:13.515,6173009,0.0599,-0.1591,0.9861,-16.4795,-9.9487,7.9956,
2026-07-24 18:52:13.535,6173029,0.0635,-0.1571,1.0876,-15.7471,-14.9536,5.4321,
2026-07-24 18:52:13.555,6173049,0.0553,-0.1565,1.1638,-14.4043,-16.2964,2.6855,
2026-07-24 18:52:13.575,6173069,0.062,-0.1394,1.2406,-11.4746,-16.4795,-0.7935,
2026-07-24 18:52:13.595,6173089,0.0679,-0.0908,1.3363,-4.2114,-16.4185,-4.4556,
2026-07-24 18:52:13.615,6173109,0.0844,-0.0367,1.441,8.4229,-16.6016,-7.6904,
2026-07-24 18:52:13.635,6173129,0.0883,-0.0699,1.4821,19.7144,-17.8223,-10.9253,
2026-07-24 18:52:13.655,6173149,0.0543,-0.1774,1.4368,20.0806,-17.5781,-14.2212,
2026-07-24 18:52:13.675,6173169,-0.0302,-0.2896,1.2682,7.5684,-10.6201,-16.3574,
2026-07-24 18:52:13.695,6173189,-0.0579,-0.3082,1.1124,-10.498,1.6479,-17.0898,
2026-07-24 18:52:13.715,6173209,-0.0112,-0.2172,1.0892,-22.2778,10.6201,-16.7847,
2026-07-24 18:52:13.735,6173229,0.0507,-0.11,1.1228,-22.2778,11.6577,-16.3574,
2026-07-24 18:52:13.755,6173249,0.0895,-0.043,1.1366,-13.4888,5.7983,-16.5405,
2026-07-24 18:52:13.775,6173269,0.0824,-0.0253,1.0922,-2.0752,-2.1362,-17.5781,
2026-07-24 18:52:13.795,6173289,0.0559,-0.0452,0.986,7.1411,-8.0566,-18.7988,
2026-07-24 18:52:13.815,6173309,0.0399,-0.0652,0.8726,12.6953,-11.5356,-20.2637,
2026-07-24 18:52:13.835,6173329,0.0277,-0.0601,0.8077,17.1509,-13.3667,-21.3623,
2026-07-24 18:52:13.855,6173349,0.0046,-0.062,0.7697,21.4844,-12.5732,-21.6064,
2026-07-24 18:52:13.875,6173369,-0.0283,-0.0792,0.7367,24.4141,-8.4839,-21.1792,
2026-07-24 18:52:13.895,6173389,-0.0469,-0.0841,0.7268,25.8789,-1.3428,-19.9585,
2026-07-24 18:52:13.915,6173409,-0.0419,-0.0865,0.7343,27.1606,6.3477,-18.3716,
2026-07-24 18:52:13.935,6173429,-0.0074,-0.0892,0.7594,27.4658,11.2915,-16.7847,
2026-07-24 18:52:13.955,6173449,0.0188,-0.1011,0.7826,26.4893,12.207,-14.7705,
2026-07-24 18:52:13.975,6173469,0.032,-0.1244,0.7976,23.6206,10.9253,-12.207,
2026-07-24 18:52:13.995,6173489,0.0623,-0.1227,0.8339,19.9585,6.7749,-9.0332,
2026-07-24 18:52:14.015,6173509,0.0884,-0.1031,0.8916,18.1274,-0.8545,-5.3711,
2026-07-24 18:52:14.035,6173529,0.0912,-0.1016,0.953,17.8223,-9.5215,-1.6479,
2026-07-24 18:52:14.055,6173549,0.0803,-0.1302,1.0242,16.4185,-17.2119,2.1973,
2026-07-24 18:52:14.075,6173569,0.0804,-0.1376,1.1279,13.7329,-23.5596,6.0425,
2026-07-24 18:52:14.095,6173589,0.0527,-0.146,1.208,10.6201,-28.7476,9.3384,
2026-07-24 18:52:14.115,6173609,0.0135,-0.1445,1.2471,6.958,-29.9072,11.7798,
2026-07-24 18:52:14.135,6173629,0.04,-0.1113,1.3574,4.7607,-27.3437,14.0991,
2026-07-24 18:52:14.155,6173649,0.0857,-0.1101,1.4143,6.0425,-28.1372,16.7236,
2026-07-24 18:52:14.175,6173669,0.0098,-0.1846,1.2664,5.0659,-32.5317,18.9209,
2026-07-24 18:52:14.195,6173689,-0.1044,-0.2446,1.0565,-3.2959,-28.3813,20.9961,
2026-07-24 18:52:14.215,6173709,-0.1373,-0.2145,0.9834,-15.7471,-12.8174,23.4375,
2026-07-24 18:52:14.235,6173729,-0.1033,-0.1166,1.0223,-23.1323,5.127,26.3062,
2026-07-24 18:52:14.255,6173749,-0.0428,-0.0376,1.0681,-20.6909,17.8833,28.8696,
2026-07-24 18:52:14.275,6173769,-0.0121,-0.0271,1.05,-11.5356,23.2544,30.2734,ROT_EXTRA_1
2026-07-24 18:52:14.295,6173789,-0.0322,-0.0765,0.95,-3.1128,25.5737,29.7852,
2026-07-24 18:52:14.315,6173809,-0.0503,-0.1252,0.8301,-0.9766,30.1514,27.771,
2026-07-24 18:52:14.336,6173829,-0.045,-0.1296,0.7427,-3.7231,36.0107,25.4517,
2026-07-24 18:52:14.355,6173849,-0.0267,-0.1196,0.6815,-7.019,40.8325,23.6816,
2026-07-24 18:52:14.375,6173869,0.0011,-0.1218,0.6365,-9.2163,43.0298,22.3389,
2026-07-24 18:52:14.395,6173889,0.032,-0.1285,0.6184,-10.9863,41.8701,21.2402,
2026-07-24 18:52:14.415,6173909,0.0541,-0.1384,0.6451,-12.8784,37.6587,19.5313,
2026-07-24 18:52:14.435,6173929,0.0736,-0.1417,0.6987,-14.9536,31.25,17.0288,
2026-07-24 18:52:14.455,6173949,0.0842,-0.1541,0.7462,-16.6626,22.9492,14.2822,
2026-07-24 18:52:14.475,6173969,0.0961,-0.1525,0.7889,-18.0664,13.916,11.7187,
2026-07-24 18:52:14.495,6173989,0.1156,-0.1509,0.8503,-18.5547,3.7842,9.2163,
2026-07-24 18:52:14.515,6174009,0.1118,-0.1644,0.9279,-18.2495,-7.5684,6.4697,
2026-07-24 18:52:14.535,6174029,0.0531,-0.1826,0.9779,-18.3105,-16.7236,3.6621,
2026-07-24 18:52:14.555,6174049,0.0021,-0.1853,0.9979,-19.043,-18.9209,1.3428,
2026-07-24 18:52:14.575,6174069,-0.0096,-0.1591,1.0621,-18.7378,-15.686,-0.1831,
2026-07-24 18:52:14.595,6174089,0.0171,-0.139,1.1736,-15.1367,-11.4746,-0.9766,
2026-07-24 18:52:14.615,6174109,0.0286,-0.152,1.2419,-9.6436,-9.3384,-1.6479,
2026-07-24 18:52:14.635,6174129,0.0229,-0.1793,1.2511,-6.2866,-7.8125,-2.2583,
2026-07-24 18:52:14.655,6174149,0.0577,-0.1671,1.329,-5.8594,-5.8594,-2.2583,
2026-07-24 18:52:14.675,6174169,0.1052,-0.15,1.4114,-4.4556,-7.5684,-1.8311,
2026-07-24 18:52:14.695,6174189,0.0684,-0.1969,1.3552,-4.0894,-13.1226,-1.77,
2026-07-24 18:52:14.715,6174209,-0.0219,-0.2607,1.2124,-9.8877,-13.7939,-1.9531,
2026-07-24 18:52:14.735,6174229,-0.0581,-0.2513,1.1277,-20.752,-4.6997,-2.5024,
2026-07-24 18:52:14.755,6174249,-0.0121,-0.1665,1.1296,-30.0903,10.8643,-3.7231,
2026-07-24 18:52:14.775,6174269,0.0736,-0.0554,1.1841,-23.2544,10.9253,-4.8218,
2026-07-24 18:52:14.795,6174289,0.1328,0.0159,1.2344,-7.4463,2.0752,-6.8359,
2026-07-24 18:52:14.815,6174309,0.125,-0.0017,1.2118,7.9346,-9.2163,-10.0708,
2026-07-24 18:52:14.835,6174329,0.0765,-0.0498,1.1263,16.8457,-16.2354,-13.855,
2026-07-24 18:52:14.855,6174349,0.0569,-0.0836,1.0049,19.8975,-19.5923,-17.1509,
2026-07-24 18:52:14.875,6174369,0.0612,-0.0984,0.8861,19.7754,-22.583,-19.2261,
2026-07-24 18:52:14.895,6174389,0.0339,-0.0939,0.7922,19.2871,-23.8647,-20.3857,
2026-07-24 18:52:14.915,6174409,-0.0095,-0.1012,0.7239,18.7378,-20.4468,-20.9351,
2026-07-24 18:52:14.935,6174429,-0.0399,-0.1077,0.6901,17.4561,-12.9395,-21.2402,
2026-07-24 18:52:14.955,6174449,-0.059,-0.109,0.6766,16.1133,-2.6855,-20.9961,
2026-07-24 18:52:14.975,6174469,-0.0358,-0.1115,0.6841,14.4043,6.958,-20.6909,
2026-07-24 18:52:14.995,6174489,0.0116,-0.1064,0.7001,12.6953,11.2915,-20.3857,
2026-07-24 18:52:15.015,6174509,0.0526,-0.0857,0.7517,12.5732,10.3149,-20.0806,
2026-07-24 18:52:15.035,6174529,0.0913,-0.0594,0.8708,15.3198,4.6387,-19.7144,
2026-07-24 18:52:15.055,6174549,0.1322,-0.0574,0.9961,20.0195,-5.6763,-19.3481,
2026-07-24 18:52:15.075,6174569,0.1094,-0.0808,1.0497,23.8037,-16.4795,-18.6768,
2026-07-24 18:52:15.095,6174589,0.0416,-0.1085,1.0265,25.0854,-20.5078,-17.2729,
2026-07-24 18:52:15.115,6174609,0.0026,-0.1182,1.019,24.9023,-17.9443,-15.1367,
2026-07-24 18:52:15.135,6174629,0.03,-0.0945,1.111,25.7568,-15.8081,-12.3901,
2026-07-24 18:52:15.155,6174649,0.0681,-0.0884,1.2197,28.0151,-18.4937,-9.5215,
2026-07-24 18:52:15.175,6174669,0.0471,-0.1117,1.274,27.8931,-21.6675,-7.1411,
2026-07-24 18:52:15.195,6174689,0.0231,-0.1215,1.3534,25.1465,-21.1792,-5.3711,
2026-07-24 18:52:15.215,6174709,0.05,-0.1317,1.4021,21.1182,-21.5454,-3.7842,
2026-07-24 18:52:15.235,6174729,0.0248,-0.187,1.2596,12.4512,-22.583,-2.1973,
2026-07-24 18:52:15.255,6174749,-0.0559,-0.2415,1.0465,-1.4648,-16.9067,0.2441,
2026-07-24 18:52:15.275,6174769,-0.1096,-0.1913,0.9463,-14.9536,-4.8218,3.8452,
2026-07-24 18:52:15.295,6174789,-0.115,-0.1296,0.9451,-22.3999,9.3994,7.7515,
2026-07-24 18:52:15.315,6174809,-0.0806,-0.0704,0.9512,-23.1323,22.644,11.1694,
2026-07-24 18:52:15.335,6174829,-0.0404,-0.0177,0.9523,-18.0664,31.0059,13.6108,
2026-07-24 18:52:15.355,6174849,-0.016,-0.0022,0.9208,-9.0332,34.2407,14.8315,
2026-07-24 18:52:15.375,6174869,-0.0033,-0.0363,0.8601,-0.2441,33.9355,14.8926,
2026-07-24 18:52:15.395,6174889,0.0032,-0.0853,0.7909,4.0894,31.9824,14.5264,
2026-07-24 18:52:15.415,6174909,0.0173,-0.1136,0.7424,3.479,28.6865,14.4043,
2026-07-24 18:52:15.435,6174929,0.0332,-0.1168,0.7109,0.4883,24.0478,14.7095,
2026-07-24 18:52:15.455,6174949,0.0369,-0.1227,0.6814,-2.3193,18.3105,15.1978,
2026-07-24 18:52:15.475,6174969,0.0292,-0.1414,0.6649,-5.4932,12.9395,15.686,
2026-07-24 18:52:15.495,6174989,0.0187,-0.1632,0.6772,-10.0708,8.7891,16.1133,
2026-07-24 18:52:15.515,6175009,0.0045,-0.1786,0.7167,-16.1743,6.4087,16.1743,
2026-07-24 18:52:15.535,6175029,-0.0148,-0.1908,0.764,-23.1934,6.0425,15.686,
2026-07-24 18:52:15.555,6175049,-0.0115,-0.1859,0.8376,-30.0293,7.7515,14.8926,
2026-07-24 18:52:15.575,6175069,0.0212,-0.1517,0.9142,-34.1187,8.9111,13.7939,
2026-07-24 18:52:15.595,6175089,0.0369,-0.1378,0.9438,-33.6914,6.897,12.2681,
2026-07-24 18:52:15.615,6175109,-0.0081,-0.1589,0.9355,-31.4941,4.6387,10.376,
2026-07-24 18:52:15.635,6175129,-0.0353,-0.1635,0.9812,-30.0903,7.5684,8.4229,
2026-07-24 18:52:15.655,6175149,0.0151,-0.1362,1.103,-27.771,12.3291,6.7749,
2026-07-24 18:52:15.675,6175169,0.082,-0.1035,1.2106,-21.6064,11.7187,4.8218,
2026-07-24 18:52:15.695,6175189,0.123,-0.0955,1.2743,-12.4512,4.5776,2.0752,
2026-07-24 18:52:15.715,6175209,0.1527,-0.0731,1.3715,-3.3569,-6.1035,-1.0986,
2026-07-24 18:52:15.735,6175229,0.1635,-0.0813,1.4426,6.4697,-19.043,-4.5776,
2026-07-24 18:52:15.755,6175249,0.0974,-0.1582,1.4261,11.9019,-31.25,-8.3618,
2026-07-24 18:52:15.775,6175269,0.0135,-0.2275,1.3929,7.6294,-35.4614,-12.4512,
2026-07-24 18:52:15.795,6175289,-0.0281,-0.2389,1.327,-3.479,-30.5786,-16.2354,
2026-07-24 18:52:15.815,6175309,-0.0129,-0.1886,1.2419,-14.7095,-21.9116,-18.7988,
2026-07-24 18:52:15.835,6175329,0.0154,-0.1055,1.1957,-19.5923,-15.686,-19.5313,
2026-07-24 18:52:15.855,6175349,0.0153,-0.0439,1.1451,-15.625,-13.3057,-18.8599,
2026-07-24 18:52:15.875,6175369,-0.0286,-0.043,1.0442,-6.897,-11.5967,-17.6392,
2026-07-24 18:52:15.895,6175389,-0.0591,-0.0607,0.9336,0.4883,-6.4697,-16.1743,
2026-07-24 18:52:15.915,6175409,-0.0603,-0.0607,0.8289,5.249,1.1597,-14.9536,
2026-07-24 18:52:15.935,6175429,-0.0312,-0.0559,0.7493,9.0332,8.0566,-13.6108,
2026-07-24 18:52:15.955,6175449,0.0007,-0.054,0.712,12.9395,11.1084,-12.3291,
2026-07-24 18:52:15.975,6175469,0.0059,-0.0492,0.7174,19.043,10.8643,-11.3525,
2026-07-24 18:52:15.995,6175489,0.0028,-0.0607,0.7412,22.3389,10.7422,-11.3525,
2026-07-24 18:52:16.015,6175509,0.0022,-0.0826,0.7609,23.6206,10.9253,-11.5356,
2026-07-24 18:52:16.035,6175529,0.0228,-0.1049,0.7742,22.3999,9.8267,-11.6577,
2026-07-24 18:52:16.055,6175549,0.0696,-0.1249,0.7902,18.7378,4.6387,-11.2305,
2026-07-24 18:52:16.075,6175569,0.1013,-0.1329,0.8201,13.7939,-4.8828,-10.1318,
2026-07-24 18:52:16.095,6175589,0.1008,-0.1255,0.8812,9.2773,-15.7471,-8.4839,
2026-07-24 18:52:16.115,6175609,0.0742,-0.1082,0.9482,6.6528,-24.292,-6.7749,
2026-07-24 18:52:16.135,6175629,0.0327,-0.0889,1.0216,6.2866,-27.8931,-4.8828,
2026-07-24 18:52:16.155,6175649,-0.0187,-0.0856,1.0504,7.2632,-25.2686,-3.0518,
2026-07-24 18:52:16.175,6175669,-0.0514,-0.0879,1.0575,8.2397,-16.9678,-1.4038,
2026-07-24 18:52:16.195,6175689,-0.026,-0.0695,1.1459,10.2539,-8.4839,0.061,
2026-07-24 18:52:16.215,6175709,0.0177,-0.0621,1.244,13.916,-4.8828,1.0986,
2026-07-24 18:52:16.235,6175729,0.002,-0.073,1.2867,16.9067,-2.7466,2.3804,
2026-07-24 18:52:16.255,6175749,0.0269,-0.0638,1.3711,20.2026,-1.2817,4.6997,
2026-07-24 18:52:16.275,6175769,0.1083,-0.0737,1.4053,23.1323,-7.5073,7.4463,
2026-07-24 18:52:16.295,6175789,0.1228,-0.1315,1.2949,20.2637,-19.5313,9.7046,
2026-07-24 18:52:16.315,6175809,0.0398,-0.2069,1.1154,10.0708,-25.6958,11.9019,
2026-07-24 18:52:16.335,6175829,-0.0591,-0.2539,0.9781,-5.4932,-20.3247,13.916,
2026-07-24 18:52:16.355,6175849,-0.1063,-0.2234,0.9343,-20.3247,-7.3242,15.7471,
2026-07-24 18:52:16.375,6175869,-0.0959,-0.1479,0.9559,-28.0762,6.2866,17.395,
2026-07-24 18:52:16.395,6175889,-0.0486,-0.0693,0.9854,-27.2827,14.9536,18.7378,
2026-07-24 18:52:16.415,6175909,-0.0265,-0.0145,0.9647,-19.7754,18.5547,18.9209,
2026-07-24 18:52:16.435,6175929,-0.053,-0.0175,0.8643,-10.5591,22.522,18.1885,
2026-07-24 18:52:16.455,6175949,-0.0784,-0.0339,0.7639,-3.2959,29.2969,17.6392,
2026-07-24 18:52:16.475,6175969,-0.0688,-0.046,0.7081,2.5024,36.1328,17.7002,
2026-07-24 18:52:16.495,6175989,-0.0144,-0.0758,0.6622,6.2866,39.2456,18.1885,
2026-07-24 18:52:16.515,6176009,0.0293,-0.1027,0.6584,7.7515,37.5366,18.6157,
2026-07-24 18:52:16.535,6176029,0.0474,-0.1327,0.6744,6.5918,31.7993,18.1885,
2026-07-24 18:52:16.555,6176049,0.0397,-0.152,0.7111,2.9297,24.9634,16.9067,
2026-07-24 18:52:16.575,6176069,0.0428,-0.163,0.7544,-1.4648,19.3481,15.4419,
2026-07-24 18:52:16.595,6176089,0.074,-0.1812,0.7935,-5.8594,13.3667,14.5264,
2026-07-24 18:52:16.615,6176109,0.1069,-0.1848,0.8518,-10.9253,4.1504,13.5498,
2026-07-24 18:52:16.635,6176129,0.0784,-0.1879,0.9022,-15.686,-7.3242,12.085,
2026-07-24 18:52:16.655,6176149,0.0071,-0.1985,0.9325,-19.8975,-14.3433,10.1318,
2026-07-24 18:52:16.675,6176169,-0.0394,-0.2017,0.9775,-24.1699,-13.0615,8.2397,
2026-07-24 18:52:16.695,6176189,-0.0182,-0.1707,1.0873,-27.3437,-7.3242,6.4697,
2026-07-24 18:52:16.715,6176209,0.0142,-0.1133,1.2108,-25.6958,-3.9062,4.3335,
2026-07-24 18:52:16.735,6176229,0.0029,-0.0962,1.2571,-18.0664,-2.9297,1.9531,
2026-07-24 18:52:16.755,6176249,0.0179,-0.063,1.3589,-8.3008,-0.5493,-0.061,
2026-07-24 18:52:16.775,6176269,0.0927,-0.0431,1.5,4.4556,-0.4883,-1.6479,
2026-07-24 18:52:16.795,6176289,0.0813,-0.1528,1.4406,14.8926,-7.1411,-4.3335,
2026-07-24 18:52:16.815,6176309,-0.0244,-0.29,1.2455,11.2305,-10.8032,-7.7515,
2026-07-24 18:52:16.835,6176329,-0.0685,-0.3112,1.1056,-5.0659,-3.1128,-10.3149,
2026-07-24 18:52:16.856,6176349,-0.0039,-0.2229,1.1196,-21.5454,7.9956,-11.7187,
2026-07-24 18:52:16.875,6176369,0.0931,-0.1062,1.2211,-27.5879,11.1084,-12.6343,
2026-07-24 18:52:16.895,6176389,0.1519,-0.0312,1.2766,-21.8506,2.9907,-13.4888,
2026-07-24 18:52:16.915,6176409,0.1213,-0.0212,1.2339,-9.6436,-11.2915,-15.1367,
2026-07-24 18:52:16.935,6176429,0.062,-0.0383,1.1345,1.77,-22.2168,-17.2119,
2026-07-24 18:52:16.955,6176449,0.0371,-0.0369,0.9965,10.3149,-26.6113,-19.043,
2026-07-24 18:52:16.975,6176469,0.0261,-0.0347,0.8616,17.1509,-28.5034,-20.0806,
2026-07-24 18:52:16.995,6176489,0.0027,-0.0454,0.7545,22.583,-29.1748,-19.8364,
2026-07-24 18:52:17.015,6176509,-0.0272,-0.0657,0.6774,26.1841,-27.2217,-18.3105,
2026-07-24 18:52:17.035,6176529,-0.0564,-0.0839,0.6417,27.3437,-21.7895,-16.2964,
2026-07-24 18:52:17.055,6176549,-0.0768,-0.1116,0.6368,25.8789,-12.8174,-14.5264,
2026-07-24 18:52:17.075,6176569,-0.072,-0.1304,0.6637,21.9727,-1.3428,-13.2446,
2026-07-24 18:52:17.095,6176589,-0.0442,-0.135,0.6953,16.2354,9.3384,-12.6343,
2026-07-24 18:52:17.115,6176609,-0.0043,-0.1188,0.7267,10.5591,16.1133,-12.146,
2026-07-24 18:52:17.135,6176629,0.0428,-0.0902,0.7938,7.2021,17.8223,-11.2305,
2026-07-24 18:52:17.155,6176649,0.0825,-0.0692,0.882,7.5684,14.1602,-9.8877,
2026-07-24 18:52:17.175,6176669,0.1246,-0.059,0.9871,10.6812,5.249,-8.2397,
2026-07-24 18:52:17.195,6176689,0.1107,-0.075,1.0466,16.9067,-12.6343,-5.9814,
2026-07-24 18:52:17.215,6176709,0.0494,-0.0942,1.0864,18.5547,-18.3105,-4.6997,
2026-07-24 18:52:17.235,6176729,0.0275,-0.0879,1.1659,20.3247,-18.4937,-3.2349,
2026-07-24 18:52:17.255,6176749,0.0492,-0.0912,1.2513,22.3999,-18.9209,-1.77,
2026-07-24 18:52:17.275,6176769,0.047,-0.1213,1.306,21.9727,-20.3857,-0.1221,
2026-07-24 18:52:17.295,6176789,0.0211,-0.1443,1.3713,18.3716,-19.8364,1.77,
2026-07-24 18:52:17.315,6176809,0.0221,-0.1577,1.4166,13.4277,-18.5547,4.3945,
2026-07-24 18:52:17.335,6176829,0.0144,-0.1731,1.3318,6.6528,-17.7002,7.6294,
2026-07-24 18:52:17.355,6176849,-0.0319,-0.199,1.152,-2.1362,-13.977,11.1084,
2026-07-24 18:52:17.375,6176869,-0.1123,-0.2164,1.0024,-12.6953,-2.3193,14.6484,
2026-07-24 18:52:17.395,6176889,-0.1407,-0.1847,0.984,-21.1792,14.8315,17.8833,
2026-07-24 18:52:17.415,6176909,-0.1202,-0.1304,1.0162,-24.353,30.0293,20.5078,
2026-07-24 18:52:17.435,6176929,-0.069,-0.0856,1.0111,-22.8882,39.5508,22.1558,
2026-07-24 18:52:17.455,6176949,-0.0128,-0.0526,0.9546,-17.6392,41.687,22.3389,
2026-07-24 18:52:17.475,6176969,-0.0022,-0.0557,0.8466,-11.5356,40.1001,21.6064,
2026-07-24 18:52:17.495,6176989,-0.0287,-0.0741,0.7428,-7.2632,39.7949,21.3623,
2026-07-24 18:52:17.515,6177009,-0.0304,-0.0869,0.6864,-4.4556,40.5884,21.9116,
2026-07-24 18:52:17.535,6177029,0.0153,-0.0941,0.6594,-2.3193,38.269,22.522,
2026-07-24 18:52:17.555,6177049,0.0533,-0.0986,0.6516,-0.9766,31.189,22.3389,
2026-07-24 18:52:17.575,6177069,0.0704,-0.1069,0.6722,-0.061,21.9116,21.7285,
2026-07-24 18:52:17.595,6177089,0.0753,-0.135,0.6932,-0.9155,12.085,20.9351,
2026-07-24 18:52:17.615,6177109,0.0764,-0.1554,0.7252,-3.6621,2.4414,20.2026,
2026-07-24 18:52:17.635,6177129,0.0784,-0.1682,0.7634,-7.3853,-6.7139,19.3481,
2026-07-24 18:52:17.655,6177149,0.058,-0.1898,0.8024,-12.3901,-14.1602,18.3105,
2026-07-24 18:52:17.675,6177169,0.0182,-0.1965,0.8716,-17.6392,-17.1509,16.8457,
2026-07-24 18:52:17.695,6177189,-0.0187,-0.1801,0.944,-21.0571,-15.1367,15.1978,
2026-07-24 18:52:17.715,6177209,-0.0494,-0.1685,0.9969,-22.2168,-9.4604,13.6108,
2026-07-24 18:52:17.735,6177229,-0.0197,-0.1597,1.0657,-22.0947,-2.0142,12.3291,
2026-07-24 18:52:17.755,6177249,0.0504,-0.1322,1.1671,-19.7754,2.0752,11.1694,
2026-07-24 18:52:17.775,6177269,0.0813,-0.1421,1.2358,-14.8926,-0.5493,9.2773,
2026-07-24 18:52:17.795,6177289,0.0576,-0.1495,1.299,-11.2305,-4.8828,6.5918,
2026-07-24 18:52:17.815,6177309,0.0822,-0.0975,1.426,-7.2021,-6.6528,3.8452,
2026-07-24 18:52:17.835,6177329,0.1147,-0.1013,1.4707,0.8545,-10.6812,0.4883,
2026-07-24 18:52:17.855,6177349,0.0282,-0.209,1.3173,5.0049,-15.9302,-3.7231,
2026-07-24 18:52:17.875,6177369,-0.0635,-0.2806,1.1405,-2.5635,-11.4136,-7.6904,
2026-07-24 18:52:17.895,6177389,-0.0469,-0.2385,1.0891,-15.686,1.4648,-10.6812,
2026-07-24 18:52:17.915,6177409,0.0281,-0.1429,1.129,-23.4375,10.8643,-12.9395,
2026-07-24 18:52:17.935,6177429,0.0929,-0.0649,1.1936,-21.2402,11.0474,-14.8926,
2026-07-24 18:52:17.955,6177449,0.1372,-0.0151,1.254,-11.7187,2.8076,-17.0288,
2026-07-24 18:52:17.975,6177469,0.1447,-0.0089,1.2603,1.3428,-10.7422,-19.8975,
2026-07-24 18:52:17.995,6177489,0.1208,-0.0334,1.1814,13.0005,-25.3296,-23.2544,
2026-07-24 18:52:18.015,6177509,0.0752,-0.0648,1.0054,20.0806,-36.438,-26.4893,
2026-07-24 18:52:18.035,6177529,0.022,-0.0739,0.8303,22.9492,-41.748,-28.5645,
2026-07-24 18:52:18.055,6177549,-0.0277,-0.0743,0.7208,23.9258,-40.7715,-28.9917,
2026-07-24 18:52:18.075,6177569,-0.0648,-0.0784,0.6567,24.231,-34.1187,-28.0151,
2026-07-24 18:52:18.095,6177589,-0.1023,-0.0848,0.6218,23.9258,-23.3154,-26.1841,
2026-07-24 18:52:18.115,6177609,-0.1138,-0.0886,0.6121,23.0103,-8.667,-23.8037,
2026-07-24 18:52:18.135,6177629,-0.0942,-0.0807,0.6298,21.1182,6.2866,-21.4233,
2026-07-24 18:52:18.155,6177649,-0.0392,-0.0612,0.6853,19.4702,17.8833,-19.2261,
2026-07-24 18:52:18.175,6177669,0.0238,-0.0555,0.7709,19.2871,22.583,-17.1509,
2026-07-24 18:52:18.195,6177689,0.0698,-0.0936,0.8629,19.165,20.3247,-15.5029,
2026-07-24 18:52:18.215,6177709,0.083,-0.1376,0.9486,15.7471,13.1226,-14.1602,
2026-07-24 18:52:18.235,6177729,0.0742,-0.1304,1.0255,9.7656,5.3711,-12.9395,
2026-07-24 18:52:18.255,6177749,0.0607,-0.106,1.0815,6.2256,-0.3052,-11.5356,
2026-07-24 18:52:18.275,6177769,0.0813,-0.0767,1.1613,6.6528,-3.3569,-10.1318,
2026-07-24 18:52:18.295,6177789,0.1227,-0.0656,1.2592,10.8032,-8.2397,-8.728,
2026-07-24 18:52:18.315,6177809,0.0913,-0.1102,1.288,14.2822,-16.1743,-7.6904,
2026-07-24 18:52:18.335,6177829,0.0144,-0.1541,1.2961,12.5732,-20.1416,-7.019,
2026-07-24 18:52:18.355,6177849,0.022,-0.1384,1.3759,7.6294,-17.2729,-5.8594,
2026-07-24 18:52:18.375,6177869,0.0819,-0.1349,1.3853,3.9062,-17.1509,-4.0894,
2026-07-24 18:52:18.395,6177889,0.0385,-0.171,1.2302,-0.3662,-22.9492,-1.5869,
2026-07-24 18:52:18.415,6177909,-0.0481,-0.2031,1.0632,-11.7187,-20.9351,4.2114,
2026-07-24 18:52:18.435,6177929,-0.0961,-0.1958,0.9875,-19.7754,-9.5825,8.2397,
2026-07-24 18:52:18.455,6177949,-0.1035,-0.1515,0.9817,-24.0478,3.7231,11.5356,
2026-07-24 18:52:18.475,6177969,-0.0806,-0.0786,0.9939,-22.0337,14.9536,13.916,
2026-07-24 18:52:18.495,6177989,-0.0271,-0.0134,0.9979,-13.2446,20.3857,15.5029,
2026-07-24 18:52:18.515,6178009,0.0126,0.016,0.9553,-0.9155,19.7144,15.9912,
2026-07-24 18:52:18.535,6178029,0.0007,-0.0062,0.8518,9.7046,17.7612,15.686,
2026-07-24 18:52:18.555,6178049,-0.0305,-0.041,0.7513,15.564,18.8599,15.3198,
2026-07-24 18:52:18.575,6178069,-0.0397,-0.068,0.6918,17.5781,22.0947,15.0757,
2026-07-24 18:52:18.595,6178089,-0.0389,-0.0873,0.6541,16.9067,25.2686,15.2588,
2026-07-24 18:52:18.615,6178109,-0.0282,-0.1106,0.6185,13.977,27.6489,15.9912,
2026-07-24 18:52:18.635,6178129,0.0114,-0.1525,0.5935,7.8125,27.0996,16.7847,
2026-07-24 18:52:18.655,6178149,0.0503,-0.1832,0.6101,-1.5259,22.3389,16.9678,
2026-07-24 18:52:18.675,6178169,0.0615,-0.1877,0.6647,-11.5967,15.3198,16.2964,
2026-07-24 18:52:18.695,6178189,0.0518,-0.2004,0.731,-21.4844,8.9722,15.0757,
2026-07-24 18:52:18.715,6178209,0.0477,-0.1949,0.8126,-29.7852,4.0283,13.977,
2026-07-24 18:52:18.735,6178229,0.0459,-0.1619,0.8843,-33.9355,-0.3052,12.8174,
2026-07-24 18:52:18.755,6178249,0.0223,-0.1605,0.9108,-35.1563,-2.1973,11.2915,
2026-07-24 18:52:18.775,6178269,-0.0238,-0.1748,0.9451,-36.2549,0.6104,9.4604,
2026-07-24 18:52:18.795,6178289,-0.0537,-0.1458,1.0455,-35.2173,7.9346,8.0566,
2026-07-24 18:52:18.815,6178309,-0.0284,-0.0773,1.1959,-27.2827,14.7095,6.8359,
2026-07-24 18:52:18.835,6178329,0.0062,-0.0662,1.2992,-14.9536,17.395,5.4321,
2026-07-24 18:52:18.855,6178349,0.0509,-0.0621,1.4039,-2.9297,15.8691,4.0894,
2026-07-24 18:52:18.875,6178369,0.1306,-0.0275,1.5579,10.9253,7.3242,2.5635,
2026-07-24 18:52:18.895,6178389,0.153,-0.0918,1.5663,20.0195,-6.897,0.4883,
2026-07-24 18:52:18.915,6178409,0.0726,-0.2338,1.4404,15.0146,-15.9912,-1.8311,
2026-07-24 18:52:18.935,6178429,-0.0574,-0.3269,1.1848,-2.4414,-12.6953,-3.8452,
2026-07-24 18:52:18.955,6178449,-0.0344,-0.2637,1.1179,-21.9116,-2.1362,-5.7373,
2026-07-24 18:52:18.975,6178469,0.0157,-0.1598,1.1289,-32.8979,5.6152,-7.4463,
2026-07-24 18:52:18.995,6178489,0.0326,-0.0721,1.1324,-32.8369,7.8125,-8.9722,
2026-07-24 18:52:19.015,6178509,0.0209,-0.0292,1.0967,-24.4141,7.4463,-10.8032,
2026-07-24 18:52:19.035,6178529,0.0016,-0.0176,1.0209,-12.8174,7.5073,-13.1226,
2026-07-24 18:52:19.055,6178549,0.0018,-0.009,0.9265,-1.5869,8.8501,-15.7471,
2026-07-24 18:52:19.075,6178569,0.0107,-0.0114,0.8315,8.728,9.4604,-18.2495,
2026-07-24 18:52:19.095,6178589,0.0259,-0.0184,0.7576,17.2729,8.3618,-20.0806,
2026-07-24 18:52:19.115,6178609,0.0408,-0.0305,0.7023,24.292,5.127,-20.6909,
2026-07-24 18:52:19.135,6178629,0.0415,-0.0481,0.6682,29.1138,-0.1831,-20.3857,
2026-07-24 18:52:19.155,6178649,0.0348,-0.0665,0.6556,31.6772,-5.3711,-19.3481,
2026-07-24 18:52:19.175,6178669,0.0393,-0.0953,0.655,31.9214,-9.6436,-17.9443,
2026-07-24 18:52:19.195,6178689,0.056,-0.1179,0.6696,28.7476,-13.7939,-16.1743,
2026-07-24 18:52:19.215,6178709,0.063,-0.1187,0.7057,23.6206,-19.165,-14.1602,
2026-07-24 18:52:19.235,6178729,0.0631,-0.1184,0.7852,18.5547,-24.6582,-11.9629,
2026-07-24 18:52:19.255,6178749,0.067,-0.1074,0.9047,14.2822,-29.8462,-9.3384,
2026-07-24 18:52:19.275,6178769,0.0726,-0.0856,1.0271,11.7798,-35.3394,-6.5918,
2026-07-24 18:52:19.295,6178789,0.0442,-0.0875,1.0905,11.0474,-40.1001,-4.1504,
2026-07-24 18:52:19.315,6178809,-0.0032,-0.1014,1.1149,9.7046,-39.978,-2.4414,
2026-07-24 18:52:19.335,6178829,-0.0155,-0.088,1.198,7.8125,-33.5693,-1.3428,
2026-07-24 18:52:19.355,6178849,0.012,-0.0725,1.3118,7.9956,-25.5737,-0.3662,
2026-07-24 18:52:19.375,6178869,0.025,-0.0906,1.3879,9.2773,-20.6909,0.9766,
2026-07-24 18:52:19.395,6178889,0.0233,-0.0988,1.483,8.9111,-17.4561,2.5635,
2026-07-24 18:52:19.415,6178909,0.0304,-0.1069,1.5267,7.9346,-15.0757,4.0283,
2026-07-24 18:52:19.435,6178929,-0.0076,-0.1566,1.4038,4.8828,-13.4277,5.188,
2026-07-24 18:52:19.455,6178949,-0.0647,-0.2087,1.1704,-2.8076,-7.6904,6.4087,
2026-07-24 18:52:19.475,6178969,-0.1169,-0.2319,0.9437,-14.6484,3.7842,8.0566,
2026-07-24 18:52:19.495,6178989,-0.1516,-0.2058,0.8303,-26.9775,19.9585,10.498,
2026-07-24 18:52:19.515,6179009,-0.1532,-0.1382,0.8309,-34.8511,38.147,13.1226,
2026-07-24 18:52:19.535,6179029,-0.0914,-0.0607,0.88,-34.729,53.9551,15.7471,
2026-07-24 18:52:19.555,6179049,0.0291,0.012,0.9292,-26.6113,60.2417,17.2119,
2026-07-24 18:52:19.575,6179069,0.1304,0.0344,0.9279,-12.2681,52.1851,16.9067,
2026-07-24 18:52:19.595,6179089,0.134,-0.01,0.8473,2.4414,34.3628,15.3809,
2026-07-24 18:52:19.615,6179109,0.083,-0.0621,0.7623,10.9863,17.395,13.7939,
2026-07-24 18:52:19.635,6179129,0.0399,-0.0881,0.698,13.916,2.9907,13.5498,
2026-07-24 18:52:19.655,6179149,0.0254,-0.0928,0.6669,13.916,-1.8921,15.0757,
2026-07-24 18:52:19.675,6179169,0.0295,-0.097,0.6632,13.855,-6.0425,17.334,
2026-07-24 18:52:19.695,6179189,0.0221,-0.1222,0.6631,11.9629,-9.7656,19.7144,
2026-07-24 18:52:19.715,6179209,0.0081,-0.1566,0.6871,6.8359,-11.8408,21.9116,
2026-07-24 18:52:19.735,6179229,-0.0022,-0.1705,0.7375,-0.3052,-12.146,23.4375,
2026-07-24 18:52:19.755,6179249,-0.0111,-0.1594,0.8105,-6.7749,-10.8032,23.8647,
2026-07-24 18:52:19.775,6179269,-0.0282,-0.1364,0.875,-10.6201,-7.5073,23.3154,
2026-07-24 18:52:19.795,6179289,-0.038,-0.1257,0.9327,-11.8408,-2.3804,22.4609,
2026-07-24 18:52:19.815,6179309,-0.0243,-0.1658,0.9733,-13.7329,2.8076,21.2402,
2026-07-24 18:52:19.835,6179329,0.0037,-0.2314,0.9862,-20.2026,5.9814,19.2261,
2026-07-24 18:52:19.855,6179349,0.0215,-0.2217,1.0398,-27.4658,7.8125,15.9912,
2026-07-24 18:52:19.875,6179369,0.0354,-0.1648,1.1448,-28.6865,8.9722,12.085,
2026-07-24 18:52:19.895,6179389,0.0596,-0.1254,1.2333,-23.8647,7.8735,7.6904,
2026-07-24 18:52:19.915,6179409,0.0807,-0.1163,1.2917,-16.6626,3.9673,3.1738,
2026-07-24 18:52:19.935,6179429,0.1187,-0.0736,1.4044,-6.3477,-2.9907,-1.4648,
2026-07-24 18:52:19.955,6179449,0.147,-0.0837,1.4532,4.0283,-13.5498,-6.5308,
2026-07-24 18:52:19.975,6179469,0.0927,-0.1686,1.3878,5.7373,-21.4233,-11.9019,
2026-07-24 18:52:19.995,6179489,0.0201,-0.2374,1.2997,-2.0142,-21.0571,-16.5405,
2026-07-24 18:52:20.015,6179509,-0.028,-0.2454,1.2014,-13.3667,-14.3433,-19.8364,
2026-07-24 18:52:20.035,6179529,-0.0275,-0.177,1.1755,-19.7144,-6.0425,-21.3623,
2026-07-24 18:52:20.055,6179549,0.0051,-0.0775,1.205,-15.686,-1.3428,-21.6064,
2026-07-24 18:52:20.075,6179569,0.0085,-0.0148,1.2002,-3.8452,0.4272,-21.4844,
2026-07-24 18:52:20.095,6179589,-0.0055,-0.0215,1.1343,8.4839,2.1362,-21.5454,
2026-07-24 18:52:20.115,6179609,-0.0131,-0.0487,1.0406,15.9912,4.2114,-21.7285,
2026-07-24 18:52:20.135,6179629,-0.0117,-0.0714,0.9094,18.9819,5.7983,-21.1792,
2026-07-24 18:52:20.155,6179649,0.0095,-0.0941,0.7504,18.7378,5.6763,-19.9585,
2026-07-24 18:52:20.175,6179669,0.0044,-0.0952,0.6981,17.334,4.0894,-18.0054,
2026-07-24 18:52:20.195,6179689,-0.0206,-0.1027,0.6716,15.5029,3.8452,-16.1743,
2026-07-24 18:52:20.215,6179709,-0.0427,-0.1093,0.6671,12.8784,6.8359,-14.9536,
2026-07-24 18:52:20.235,6179729,-0.0365,-0.105,0.6812,9.7656,11.8408,-13.977,
2026-07-24 18:52:20.255,6179749,-0.0101,-0.0946,0.6957,7.3242,15.9302,-13.1226,
2026-07-24 18:52:20.275,6179769,0.0378,-0.0835,0.714,6.1035,16.6626,-12.3291,
2026-07-24 18:52:20.295,6179789,0.0883,-0.0691,0.7628,6.0425,11.8408,-11.2305,
2026-07-24 18:52:20.315,6179809,0.1179,-0.0505,0.8618,7.7515,1.6479,-10.2539,
2026-07-24 18:52:20.335,6179829,0.1067,-0.0513,0.9832,10.9253,-10.9253,-9.7046,
2026-07-24 18:52:20.355,6179849,0.0693,-0.0627,1.0896,14.0381,-21.3623,-9.6436,
2026-07-24 18:52:20.375,6179869,0.009,-0.0795,1.1193,16.4185,-26.001,-9.7046,
2026-07-24 18:52:20.395,6179889,0.0021,-0.0892,1.1309,17.4561,-22.8882,-9.7046,
2026-07-24 18:52:20.415,6179909,0.0739,-0.0762,1.2229,18.3105,-18.9819,-9.3994,
2026-07-24 18:52:20.435,6179929,0.0996,-0.0914,1.2942,19.9585,-21.6064,-8.8501,
2026-07-24 18:52:20.455,6179949,0.053,-0.1378,1.3287,19.2261,-26.001,-7.9346,
2026-07-24 18:52:20.475,6179969,0.0439,-0.156,1.3955,14.3433,-26.001,-6.958,
2026-07-24 18:52:20.495,6179989,0.0632,-0.1655,1.3871,7.5073,-25.6958,-6.0425,
2026-07-24 18:52:20.515,6180009,0.0375,-0.1958,1.2345,-1.3428,-27.0996,-4.9438,
2026-07-24 18:52:20.540,6180033,-0.0088,-0.2153,1.0516,-18.1274,-23.5596,-1.77,
2026-07-24 18:52:20.559,6180053,-0.05,-0.1874,0.9497,-27.3437,-15.625,1.3428,
2026-07-24 18:52:20.579,6180073,-0.078,-0.1196,0.9268,-30.3345,-4.8218,4.6387,
2026-07-24 18:52:20.599,6180093,-0.0876,-0.0447,0.9368,-25.5737,6.897,7.6294,
2026-07-24 18:52:20.619,6180113,-0.0787,0.0106,0.9513,-14.5264,16.8457,9.8877,
2026-07-24 18:52:20.639,6180133,-0.0563,0.0365,0.9493,-0.1831,23.4375,11.5356,
2026-07-24 18:52:20.659,6180153,-0.0264,0.0037,0.8969,11.8408,25.6958,12.4512,
2026-07-24 18:52:20.679,6180173,-0.0256,-0.0472,0.7982,17.8833,25.6958,13.4888,
2026-07-24 18:52:20.699,6180193,-0.0138,-0.0828,0.7039,18.7378,24.8413,15.1978,
2026-07-24 18:52:20.719,6180213,0.0063,-0.1033,0.626,16.8457,22.0337,17.4561,
2026-07-24 18:52:20.739,6180233,0.0106,-0.1173,0.5665,13.4277,18.1274,20.0195,
2026-07-24 18:52:20.759,6180253,0.0201,-0.1326,0.5667,8.7891,14.0991,22.3389,
2026-07-24 18:52:20.779,6180273,0.0397,-0.1388,0.6278,3.479,8.9111,24.231,
2026-07-24 18:52:20.799,6180293,0.0659,-0.1476,0.7257,-2.3193,1.5259,24.7803,
2026-07-24 18:52:20.819,6180313,0.0885,-0.1747,0.8274,-9.4604,-7.9346,23.8647,
2026-07-24 18:52:20.839,6180333,0.0933,-0.1965,0.9039,-18.1885,-17.8223,22.0337,
2026-07-24 18:52:20.859,6180353,0.0658,-0.1896,0.9507,-26.001,-24.7192,19.3481,
2026-07-24 18:52:20.879,6180373,0.0107,-0.1742,0.9697,-30.8838,-25.5127,16.5405,
2026-07-24 18:52:20.899,6180393,-0.0836,-0.1504,0.9862,-33.2031,-18.7988,14.4653,
2026-07-24 18:52:20.919,6180413,-0.1017,-0.1196,1.0737,-32.2266,-5.3711,12.6953,
2026-07-24 18:52:20.939,6180433,-0.0544,-0.0927,1.1943,-26.9775,9.3994,10.6812,
2026-07-24 18:52:20.959,6180453,-0.0173,-0.099,1.2562,-18.6157,19.7754,7.9346,
2026-07-24 18:52:20.979,6180473,-0.0027,-0.113,1.2952,-10.9253,26.6113,4.7607,
2026-07-24 18:52:20.999,6180493,0.0688,-0.0767,1.439,-3.2959,30.7617,1.5869,
2026-07-24 18:52:21.019,6180513,0.1479,-0.093,1.5162,6.7139,26.3062,-1.8921,
2026-07-24 18:52:21.039,6180533,0.1213,-0.1906,1.4492,11.7798,14.2822,-6.0425,
2026-07-24 18:52:21.059,6180553,0.071,-0.2635,1.3618,6.3477,5.0049,-9.9487,
2026-07-24 18:52:21.079,6180573,0.0364,-0.2701,1.2539,-6.1035,1.3428,-13.6719,
2026-07-24 18:52:21.099,6180593,0.0277,-0.213,1.163,-18.0664,1.2207,-17.2119,
2026-07-24 18:52:21.119,6180613,0.0406,-0.1246,1.1207,-22.522,1.4038,-19.5923,
2026-07-24 18:52:21.139,6180633,0.0452,-0.0706,1.0706,-18.2495,-0.7324,-21.4844,
2026-07-24 18:52:21.159,6180653,0.0184,-0.0526,1.002,-9.8267,-4.1504,-22.8882,
2026-07-24 18:52:21.179,6180673,-0.0038,-0.0481,0.9078,-1.0986,-5.9814,-23.6816,
2026-07-24 18:52:21.199,6180693,-0.0142,-0.0503,0.8094,5.9204,-6.2256,-23.8647,
2026-07-24 18:52:21.219,6180713,-0.0327,-0.054,0.733,10.9863,-5.6152,-23.4375,
2026-07-24 18:52:21.239,6180733,-0.059,-0.0621,0.6857,14.9536,-2.8687,-22.522,
2026-07-24 18:52:21.259,6180753,-0.0735,-0.0718,0.6667,18.0054,2.6245,-21.3013,
2026-07-24 18:52:21.279,6180773,-0.0745,-0.0863,0.6703,19.2871,9.6436,-19.8975,
2026-07-24 18:52:21.299,6180793,-0.0592,-0.0966,0.6921,19.043,16.4795,-18.3716,
2026-07-24 18:52:21.319,6180813,-0.0125,-0.1055,0.7305,17.7612,21.2402,-16.8457,
2026-07-24 18:52:21.339,6180833,0.0479,-0.1062,0.7826,15.564,20.6909,-15.8081,
2026-07-24 18:52:21.359,6180853,0.0778,-0.0994,0.8412,13.855,14.4043,-15.0146,
2026-07-24 18:52:21.379,6180873,0.0969,-0.0951,0.9283,13.2446,5.3711,-14.4653,
2026-07-24 18:52:21.399,6180893,0.0981,-0.0703,1.0338,13.7329,-5.0659,-13.916,
2026-07-24 18:52:21.419,6180913,0.0826,-0.054,1.1079,16.9067,-14.7705,-13.5498,
2026-07-24 18:52:21.439,6180933,0.0519,-0.0624,1.1671,20.9961,-21.3623,-13.5498,
2026-07-24 18:52:21.459,6180953,0.0641,-0.0571,1.2552,24.4141,-24.0478,-13.4888,
2026-07-24 18:52:21.479,6180973,0.1011,-0.0688,1.328,27.771,-27.6489,-13.0005,
2026-07-24 18:52:21.499,6180993,0.0721,-0.1185,1.3058,28.6865,-33.8745,-12.207,
2026-07-24 18:52:21.519,6181013,-0.0109,-0.1605,1.2701,24.4751,-35.7666,-10.6812,
2026-07-24 18:52:21.539,6181033,-0.0238,-0.1589,1.2756,17.6392,-29.48,-7.8125,
2026-07-24 18:52:21.559,6181053,-0.0243,-0.167,1.1884,10.8032,-21.9116,-4.3945,
2026-07-24 18:52:21.579,6181073,-0.0618,-0.192,1.0397,-1.4038,-8.606,1.5259,
2026-07-24 18:52:21.599,6181093,-0.0394,-0.1814,1.0234,-9.7656,1.0376,5.188,
2026-07-24 18:52:21.619,6181113,0.022,-0.136,1.1,-14.4653,3.7842,8.1787,
2026-07-24 18:52:21.639,6181133,0.0479,-0.0914,1.1252,-14.9536,0.3662,10.3149,
2026-07-24 18:52:21.659,6181153,0.0298,-0.058,1.0831,-11.7187,-3.7231,11.6577,
2026-07-24 18:52:21.679,6181173,-0.0142,-0.0568,0.9647,-7.2632,-3.9062,12.146,
2026-07-24 18:52:21.699,6181193,-0.066,-0.0691,0.8406,-3.9673,1.4648,12.3901,
2026-07-24 18:52:21.719,6181213,-0.1066,-0.078,0.7467,-2.1362,11.4136,13.3057,
2026-07-24 18:52:21.739,6181233,-0.1221,-0.0901,0.6536,-1.709,23.7427,14.7705,
2026-07-24 18:52:21.759,6181253,-0.1156,-0.1,0.585,-2.5024,35.7666,16.5405,
2026-07-24 18:52:21.779,6181273,-0.0846,-0.099,0.553,-2.9297,44.7388,18.5547,
2026-07-24 18:52:21.799,6181293,-0.03,-0.0956,0.5608,-3.2959,48.2178,20.0806,
2026-07-24 18:52:21.819,6181313,0.0381,-0.0972,0.6105,-3.2349,44.3726,20.6909,
2026-07-24 18:52:21.839,6181333,0.0806,-0.1365,0.6624,-4.7607,34.79,20.3857,
2026-07-24 18:52:21.859,6181353,0.0864,-0.1821,0.7268,-10.0098,23.8037,19.7144,
2026-07-24 18:52:21.879,6181373,0.0857,-0.1798,0.8188,-15.9302,13.855,18.7378,
2026-07-24 18:52:21.899,6181393,0.1052,-0.1555,0.9159,-18.8599,3.6011,17.395,
2026-07-24 18:52:21.919,6181413,0.1259,-0.1426,0.989,-18.2495,-8.5449,15.564,
2026-07-24 18:52:21.939,6181433,0.1042,-0.1691,0.9988,-17.8223,-19.7144,13.7939,
2026-07-24 18:52:21.959,6181453,0.0699,-0.1697,1.0314,-18.1885,-26.5503,12.3291,
2026-07-24 18:52:21.979,6181473,0.0582,-0.1266,1.1294,-15.0757,-30.0293,10.9253,
2026-07-24 18:52:21.999,6181493,0.0454,-0.1188,1.2158,-9.5825,-30.8838,8.667,
2026-07-24 18:52:22.019,6181513,0.0314,-0.1382,1.2903,-5.4321,-28.9307,6.0425,
2026-07-24 18:52:22.039,6181533,0.0361,-0.1182,1.4159,-0.8545,-25.8179,3.9673,
2026-07-24 18:52:22.059,6181553,0.0499,-0.1017,1.5332,5.6152,-23.4985,2.1362,
2026-07-24 18:52:22.079,6181573,-0.0172,-0.1843,1.4573,5.7373,-17.334,-0.1221,
2026-07-24 18:52:22.099,6181593,-0.1074,-0.2852,1.3073,-4.8828,-0.9766,-2.2583,
2026-07-24 18:52:22.119,6181613,-0.049,-0.2457,1.2412,-19.165,18.1274,-3.8452,
2026-07-24 18:52:22.139,6181633,0.0365,-0.1519,1.2433,-26.7944,28.5034,-5.0659,
2026-07-24 18:52:22.159,6181653,0.0769,-0.0873,1.2065,-24.5972,28.1982,-5.9814,
2026-07-24 18:52:22.179,6181673,0.0726,-0.0547,1.1555,-15.9302,22.2778,-7.2632,
2026-07-24 18:52:22.199,6181693,0.0571,-0.0543,1.089,-5.8594,15.5029,-9.3384,
2026-07-24 18:52:22.219,6181713,0.0541,-0.068,0.9795,2.1362,9.2163,-11.9629,
2026-07-24 18:52:22.239,6181733,0.0537,-0.0767,0.8549,7.2632,2.6245,-14.2822,
2026-07-24 18:52:22.259,6181753,0.0437,-0.0667,0.7495,10.498,-4.3945,-15.8081,
2026-07-24 18:52:22.279,6181773,0.0206,-0.0571,0.6786,14.0991,-10.0098,-16.4795,
2026-07-24 18:52:22.299,6181793,-0.0133,-0.0503,0.6486,18.3716,-12.9395,-16.1133,
2026-07-24 18:52:22.319,6181813,-0.0446,-0.0642,0.6331,22.7661,-11.7187,-15.2588,
2026-07-24 18:52:22.339,6181833,-0.0468,-0.0771,0.6359,24.8413,-7.3853,-14.6484,
2026-07-24 18:52:22.359,6181853,-0.033,-0.0856,0.6589,24.7803,-2.6855,-14.2822,
2026-07-24 18:52:22.379,6181873,-0.0132,-0.1,0.6895,22.9492,0.6714,-13.977,
2026-07-24 18:52:22.399,6181893,0.0143,-0.1086,0.7588,19.104,1.77,-13.2446,
2026-07-24 18:52:22.419,6181913,0.0455,-0.0923,0.8583,15.1978,-0.4272,-11.7187,
2026-07-24 18:52:22.439,6181933,0.068,-0.0778,0.96,13.2446,-5.8594,-9.5215,
2026-07-24 18:52:22.459,6181953,0.0759,-0.0719,1.0634,13.1836,-13.2446,-7.2632,
2026-07-24 18:52:22.479,6181973,0.0381,-0.0765,1.1278,13.7329,-19.6533,-5.6152,
2026-07-24 18:52:22.499,6181993,-0.0052,-0.0839,1.1859,14.2212,-20.0195,-4.7607,
2026-07-24 18:52:22.519,6182013,-0.0031,-0.0739,1.2506,15.1367,-14.9536,-4.0283,
2026-07-24 18:52:22.539,6182033,0.0178,-0.0809,1.2736,16.9067,-9.7046,-3.1738,
2026-07-24 18:52:22.559,6182053,0.0605,-0.0922,1.3383,17.4561,-7.3242,-1.9531,
2026-07-24 18:52:22.579,6182073,0.1133,-0.0977,1.4282,17.1509,-10.437,-0.3662,
2026-07-24 18:52:22.599,6182093,0.0969,-0.1521,1.3876,14.6484,-19.043,0.8545,
2026-07-24 18:52:22.619,6182113,0.0293,-0.2181,1.228,6.1646,-25.5737,2.0752,
2026-07-24 18:52:22.639,6182133,-0.0312,-0.2307,1.0691,-7.2021,-24.7192,4.1504,
2026-07-24 18:52:22.659,6182153,-0.0759,-0.1921,0.9827,-19.7144,-17.395,7.0801,
2026-07-24 18:52:22.679,6182173,-0.1074,-0.139,0.95,-27.2217,-5.4932,10.2539,
2026-07-24 18:52:22.699,6182193,-0.1194,-0.0879,0.9509,-28.7476,8.728,13.0005,
2026-07-24 18:52:22.719,6182213,-0.0939,-0.043,0.9697,-24.9023,22.522,14.8926,
2026-07-24 18:52:22.739,6182233,-0.0452,-0.0045,0.9618,-17.0288,31.9214,15.4419,
2026-07-24 18:52:22.759,6182253,-0.0063,-0.0033,0.8838,-6.4697,34.729,15.1978,
2026-07-24 18:52:22.779,6182273,0.0083,-0.0297,0.7731,2.8076,32.7759,14.7095,
2026-07-24 18:52:22.799,6182293,0.0189,-0.0604,0.6808,8.5449,28.7476,14.6484,
2026-07-24 18:52:22.819,6182313,0.0306,-0.0876,0.6195,10.0098,20.5688,15.3198,
2026-07-24 18:52:22.839,6182333,0.0337,-0.1039,0.5875,8.3008,14.8315,15.8081,
2026-07-24 18:52:22.859,6182353,0.0175,-0.1299,0.5876,4.2725,10.8032,15.9302,
2026-07-24 18:52:22.879,6182373,-0.0059,-0.1586,0.6227,-2.5024,9.7656,15.4419,
2026-07-24 18:52:22.899,6182393,0.0051,-0.1647,0.6965,-9.6436,9.5215,14.7705,
2026-07-24 18:52:22.919,6182413,0.0261,-0.1578,0.7698,-15.2588,7.0801,14.0991,
2026-07-24 18:52:22.939,6182433,0.043,-0.1511,0.8263,-19.043,2.8076,13.4888,
2026-07-24 18:52:22.959,6182453,0.0609,-0.1354,0.9182,-20.874,-2.8687,12.207,
2026-07-24 18:52:22.979,6182473,0.0643,-0.1412,1.0272,-21.6675,-9.3384,10.2539,
2026-07-24 18:52:22.999,6182493,0.041,-0.1624,1.0848,-23.0103,-13.6719,8.0566,
2026-07-24 18:52:23.019,6182513,0.0137,-0.1724,1.1001,-24.6582,-14.0991,6.0425,
2026-07-24 18:52:23.039,6182533,0.0209,-0.1421,1.1683,-23.6206,-12.5122,4.1504,
2026-07-24 18:52:23.059,6182553,0.0403,-0.1074,1.2552,-18.1885,-12.207,2.1362,
2026-07-24 18:52:23.079,6182573,0.0466,-0.1199,1.3018,-11.9629,-12.4512,0.3052,
2026-07-24 18:52:23.099,6182593,0.0582,-0.127,1.3547,-7.2021,-13.3057,-1.5259,
2026-07-24 18:52:23.119,6182613,0.0778,-0.1133,1.4501,-1.6479,-15.9302,-3.1738,
2026-07-24 18:52:23.139,6182633,0.0547,-0.1487,1.4498,1.2817,-18.0664,-5.188,
2026-07-24 18:52:23.160,6182653,-0.0194,-0.2261,1.3472,-3.7231,-13.3057,-7.6294,
2026-07-24 18:52:23.179,6182673,-0.0652,-0.2723,1.2297,-15.686,-1.0986,-10.1929,
2026-07-24 18:52:23.200,6182693,-0.0419,-0.2483,1.1724,-27.5269,10.8643,-12.8174,
2026-07-24 18:52:23.219,6182713,0.012,-0.1772,1.1797,-32.6538,16.6016,-14.8315,
2026-07-24 18:52:23.239,6182733,0.0421,-0.1031,1.1495,-29.2358,16.1133,-16.1743,
2026-07-24 18:52:23.259,6182753,0.0413,-0.0546,1.0682,-19.8364,13.1226,-16.9067,
2026-07-24 18:52:23.279,6182773,0.0343,-0.0367,0.9692,-8.667,9.5825,-17.6392,
2026-07-24 18:52:23.299,6182793,0.032,-0.0328,0.8707,1.8921,5.6763,-18.6157,
2026-07-24 18:52:23.319,6182813,0.03,-0.0293,0.7943,11.2915,1.77,-19.4702,
2026-07-24 18:52:23.339,6182833,0.0179,-0.0256,0.7422,19.8364,-2.3804,-20.2026,
2026-07-24 18:52:23.359,6182853,-0.0031,-0.0358,0.7423,27.0996,-5.0659,-20.6299,
2026-07-24 18:52:23.380,6182873,-0.0288,-0.0548,0.7493,32.5928,-5.127,-20.5078,
2026-07-24 18:52:23.399,6182893,-0.0348,-0.0786,0.7655,35.2783,-2.7466,-19.7754,
2026-07-24 18:52:23.419,6182913,0.0015,-0.0812,0.7677,35.2173,-0.4883,-18.4937,
2026-07-24 18:52:23.439,6182933,0.0276,-0.0839,0.7596,34.0576,-1.8311,-15.9912,
2026-07-24 18:52:23.459,6182953,0.0309,-0.0937,0.7745,31.8603,-5.6152,-12.6343,
2026-07-24 18:52:23.479,6182973,0.0369,-0.1165,0.8192,27.9541,-9.9487,-8.667,
2026-07-24 18:52:23.499,6182993,0.0272,-0.1296,0.8707,21.6675,-14.4043,-4.4556,
2026-07-24 18:52:23.519,6183013,0.002,-0.1118,0.9526,14.7705,-16.9678,-0.8545,
2026-07-24 18:52:23.539,6183033,-0.0135,-0.0768,1.0442,10.5591,-15.8691,1.8921,
2026-07-24 18:52:23.559,6183053,-0.0121,-0.0525,1.1152,10.498,-11.7798,3.418,
2026-07-24 18:52:23.579,6183073,0.0139,-0.0568,1.2231,13.1226,-6.8359,3.6621,
2026-07-24 18:52:23.599,6183093,0.0315,-0.0775,1.3185,15.3809,-4.2114,3.0518,
2026-07-24 18:52:23.619,6183113,0.028,-0.1069,1.3569,15.3198,-3.6621,2.3193,
2026-07-24 18:52:23.639,6183133,0.0667,-0.1072,1.4285,13.1836,-3.7231,2.1362,
2026-07-24 18:52:23.659,6183153,0.152,-0.0975,1.4631,11.4136,-9.4604,2.1973,
2026-07-24 18:52:23.679,6183173,0.1371,-0.1392,1.343,9.3384,-23.4375,2.1362,
2026-07-24 18:52:23.699,6183193,0.0212,-0.1978,1.125,3.1128,-34.3628,2.6245,
2026-07-24 18:52:23.719,6183213,-0.0833,-0.2229,0.9286,-7.0801,-32.3486,4.6387,
2026-07-24 18:52:23.740,6183233,-0.1356,-0.2035,0.8123,-18.4326,-19.2261,7.3853,
2026-07-24 18:52:23.759,6183253,-0.1226,-0.136,0.8146,-26.4893,-1.4648,10.498,
2026-07-24 18:52:23.779,6183273,-0.0856,-0.0684,0.8662,-27.4048,13.855,13.1226,
2026-07-24 18:52:23.799,6183293,-0.037,-0.0297,0.9041,-22.7051,23.3154,14.5874,
2026-07-24 18:52:23.819,6183313,0.0139,-0.0291,0.8987,-15.625,25.6348,14.8315,
2026-07-24 18:52:23.839,6183333,0.024,-0.0535,0.8373,-9.1553,22.0947,14.0991,
2026-07-24 18:52:23.859,6183353,-0.0062,-0.0852,0.734,-5.4321,17.8833,13.0615,
2026-07-24 18:52:23.879,6183373,-0.0056,-0.0936,0.6848,-4.3335,16.3574,12.6343,
2026-07-24 18:52:23.899,6183393,0.0214,-0.0892,0.6788,-3.2349,14.5264,12.9395,
2026-07-24 18:52:23.919,6183413,0.0273,-0.092,0.6888,-1.1597,10.2539,13.3667,
2026-07-24 18:52:23.939,6183433,0.0217,-0.0946,0.7173,0.7324,5.9814,13.6108,
2026-07-24 18:52:23.959,6183453,0.0245,-0.118,0.746,1.8311,2.5024,13.3667,
2026-07-24 18:52:23.979,6183473,0.0391,-0.1442,0.7791,0.3662,-1.2817,12.7563,
2026-07-24 18:52:23.999,6183493,0.0483,-0.1462,0.8459,-2.9907,-6.2866,11.9629,
2026-07-24 18:52:24.019,6183513,0.0164,-0.1428,0.9152,-6.0425,-10.8643,10.5591,
2026-07-24 18:52:24.039,6183533,-0.0304,-0.1656,0.9484,-10.3149,-8.7891,8.2397,
2026-07-24 18:52:24.059,6183553,-0.056,-0.2048,0.9532,-15.686,-1.8921,7.5073,
2026-07-24 18:52:24.079,6183573,-0.0706,-0.2288,0.958,-22.8271,7.4463,7.3242,
2026-07-24 18:52:24.099,6183593,-0.0592,-0.2,1.035,-27.1606,17.5171,7.2632,
2026-07-24 18:52:24.119,6183613,-0.0283,-0.1516,1.1382,-25.3296,25.2075,6.4697,
2026-07-24 18:52:24.139,6183633,0.0028,-0.1367,1.1945,-19.9585,29.8462,4.5166,
2026-07-24 18:52:24.159,6183653,0.0475,-0.1146,1.2804,-12.4512,30.4565,1.8921,
2026-07-24 18:52:24.179,6183673,0.1334,-0.0615,1.4406,-0.1831,23.4375,-1.3428,
2026-07-24 18:52:24.199,6183693,0.1753,-0.0854,1.4972,11.8408,8.9111,-6.0425,
2026-07-24 18:52:24.219,6183713,0.0745,-0.2136,1.3784,11.8408,0.1221,-11.2915,
2026-07-24 18:52:24.239,6183733,-0.0149,-0.3007,1.2488,-0.1221,3.54,-15.564,
2026-07-24 18:52:24.259,6183753,0.0245,-0.2622,1.239,-12.7563,8.1787,-18.9209,
2026-07-24 18:52:24.279,6183773,0.1033,-0.1757,1.2617,-17.395,4.1504,-21.3013,
2026-07-24 18:52:24.299,6183793,0.1199,-0.1194,1.2209,-14.2822,-5.7983,-23.0103,
2026-07-24 18:52:24.319,6183813,0.0634,-0.0851,1.158,-7.3242,-13.1836,-24.5361,
2026-07-24 18:52:24.339,6183833,0.0095,-0.0627,1.0906,0.7324,-14.4043,-25.9399,
2026-07-24 18:52:24.359,6183853,-0.0048,-0.0422,1.0138,9.0942,-13.0615,-27.0386,
2026-07-24 18:52:24.379,6183873,-0.0022,-0.0319,0.9122,17.334,-11.9019,-27.71,
2026-07-24 18:52:24.399,6183893,-0.0089,-0.0365,0.8107,24.353,-10.8643,-27.6489,
2026-07-24 18:52:24.419,6183913,-0.0322,-0.0437,0.7328,29.7241,-8.2397,-26.9775,
2026-07-24 18:52:24.439,6183933,-0.0521,-0.0564,0.678,33.6304,-2.9907,-25.4517,
2026-07-24 18:52:24.459,6183953,-0.0554,-0.0731,0.6433,35.1563,3.1128,-23.9258,
2026-07-24 18:52:24.479,6183973,-0.0439,-0.0881,0.6521,34.668,8.7891,-22.3389,
2026-07-24 18:52:24.499,6183993,-0.0221,-0.0977,0.6799,32.5317,12.6343,-20.752,
2026-07-24 18:52:24.519,6184013,0.0042,-0.1001,0.7102,29.541,13.4277,-18.9209,
2026-07-24 18:52:24.539,6184033,0.0602,-0.1102,0.796,26.123,10.6812,-16.7236,
2026-07-24 18:52:24.559,6184053,0.1024,-0.1356,0.8608,21.6675,3.54,-14.4043,
2026-07-24 18:52:24.579,6184073,0.126,-0.1438,0.949,15.4419,-8.0566,-11.9629,
2026-07-24 18:52:24.599,6184093,0.1219,-0.1245,1.049,9.7656,-21.2402,-9.7656,
2026-07-24 18:52:24.619,6184113,0.0842,-0.1113,1.0953,6.6528,-32.5317,-8.0566,
2026-07-24 18:52:24.639,6184133,0.0353,-0.1041,1.1302,6.0425,-37.7197,-7.1411,
2026-07-24 18:52:24.659,6184153,0.0223,-0.0958,1.2009,7.0801,-36.8652,-6.1035,
2026-07-24 18:52:24.679,6184173,0.0016,-0.0974,1.2683,8.8501,-34.2407,-4.4556,
2026-07-24 18:52:24.699,6184193,-0.0131,-0.0945,1.3737,10.3149,-30.1514,-2.1362,
2026-07-24 18:52:24.719,6184213,0.0132,-0.1041,1.4806,12.085,-25.7568,0.7935,
2026-07-24 18:52:24.739,6184233,0.0115,-0.1558,1.423,11.2915,-24.5361,3.9673,
2026-07-24 18:52:24.759,6184253,-0.0312,-0.215,1.2018,4.5166,-23.2544,7.5684,
2026-07-24 18:52:24.779,6184273,-0.08,-0.2368,0.9838,-6.958,-17.0898,12.085,
2026-07-24 18:52:24.799,6184293,-0.0951,-0.2014,0.9019,-18.5547,-6.1646,17.2729,
2026-07-24 18:52:24.819,6184313,-0.1036,-0.1426,0.9332,-25.3906,5.8594,22.583,
2026-07-24 18:52:24.839,6184333,-0.0956,-0.1063,0.9816,-26.3672,17.7612,27.0996,
2026-07-24 18:52:24.859,6184353,-0.0537,-0.0747,0.9943,-23.7427,27.1606,29.541,
2026-07-24 18:52:24.879,6184373,-0.0211,-0.0505,0.9476,-18.3105,31.4331,29.8462,
2026-07-24 18:52:24.899,6184393,-0.0192,-0.0605,0.833,-11.4136,32.1655,28.6865,
2026-07-24 18:52:24.919,6184413,-0.026,-0.0841,0.7196,-6.4087,32.1655,27.6489,
2026-07-24 18:52:24.939,6184433,-0.0209,-0.1068,0.6505,-4.3335,32.4097,27.3437,
2026-07-24 18:52:24.959,6184453,-0.0166,-0.126,0.609,-4.0894,31.9824,27.8931,
2026-07-24 18:52:24.979,6184473,-0.0059,-0.1338,0.6056,-5.6152,30.8838,28.3813,
2026-07-24 18:52:24.999,6184493,-0.0035,-0.1267,0.6343,-7.6294,29.2358,28.4424,
2026-07-24 18:52:25.019,6184513,-0.0002,-0.1354,0.6731,-8.7891,27.6489,28.0151,
2026-07-24 18:52:25.039,6184533,0.0331,-0.1685,0.7252,-10.8032,25.6958,27.0386,
2026-07-24 18:52:25.059,6184553,0.0754,-0.194,0.788,-15.0757,20.2637,25.3906,
2026-07-24 18:52:25.079,6184573,0.1112,-0.2103,0.8798,-20.9351,11.1084,23.0103,
2026-07-24 18:52:25.099,6184593,0.1116,-0.2006,0.9709,-26.8555,-0.7324,19.7754,
2026-07-24 18:52:25.119,6184613,0.0641,-0.1968,1.007,-30.2124,-11.2305,16.1743,
2026-07-24 18:52:25.139,6184633,-0.0005,-0.218,0.9814,-32.4097,-15.3198,13.3057,
2026-07-24 18:52:25.159,6184653,-0.019,-0.1887,1.0072,-35.0952,-12.146,11.5356,
2026-07-24 18:52:25.179,6184673,0.0082,-0.1353,1.1031,-33.7524,-6.8359,10.0098,
2026-07-24 18:52:25.199,6184693,0.0247,-0.1173,1.2061,-26.7944,-3.479,8.0566,
2026-07-24 18:52:25.219,6184713,0.0272,-0.0885,1.3474,-17.7002,-1.0376,5.249,
2026-07-24 18:52:25.239,6184733,0.1177,-0.0247,1.5873,-5.0659,0.3052,1.9531,
2026-07-24 18:52:25.259,6184753,0.1808,-0.1044,1.6437,14.5874,-14.4653,-5.3101,
2026-07-24 18:52:25.279,6184773,0.0743,-0.277,1.4635,7.4463,-22.1558,-10.498,
2026-07-24 18:52:25.299,6184793,-0.0111,-0.3293,1.2813,-10.6201,-17.5781,-13.6108,
2026-07-24 18:52:25.319,6184813,0.0237,-0.2349,1.2321,-22.9492,-11.7187,-15.2588,
2026-07-24 18:52:25.339,6184833,0.0685,-0.1057,1.2466,-21.7895,-11.8408,-16.1743,
2026-07-24 18:52:25.359,6184853,0.0511,-0.0198,1.229,-9.1553,-13.6719,-17.0288,
2026-07-24 18:52:25.379,6184873,-0.0068,0.0046,1.168,6.958,-11.3525,-18.1274,
2026-07-24 18:52:25.399,6184893,-0.0448,-0.001,1.0853,20.9351,-4.8828,-19.6533,
2026-07-24 18:52:25.419,6184913,-0.0449,-0.0144,0.9661,30.8228,2.3804,-21.7895,
2026-07-24 18:52:25.439,6184933,-0.0254,-0.036,0.8208,36.499,7.3853,-23.5596,
2026-07-24 18:52:25.459,6184953,-0.0114,-0.0543,0.7124,38.8184,9.4604,-24.1699,
2026-07-24 18:52:25.479,6184973,-0.0065,-0.0742,0.6394,38.3301,10.2539,-23.8037,
2026-07-24 18:52:25.499,6184993,-0.0106,-0.0978,0.6057,35.3394,10.6812,-22.9492,
2026-07-24 18:52:25.519,6185013,-0.015,-0.105,0.5929,30.8228,12.085,-21.8506,
2026-07-24 18:52:25.539,6185033,-0.0043,-0.0977,0.6119,26.5503,13.5498,-20.752,
2026-07-24 18:52:25.559,6185053,0.0248,-0.0923,0.6639,22.9492,12.5732,-19.8975,
2026-07-24 18:52:25.579,6185073,0.0767,-0.0968,0.7422,19.2871,7.1411,-19.4702,
2026-07-24 18:52:25.599,6185093,0.1346,-0.1075,0.8348,15.1367,-4.3335,-19.2871,
2026-07-24 18:52:25.619,6185113,0.1539,-0.1045,0.9183,11.4136,-19.4092,-18.9819,
2026-07-24 18:52:25.639,6185133,0.1149,-0.1046,0.9716,8.606,-31.7993,-18.4326,
2026-07-24 18:52:25.659,6185153,0.0458,-0.1058,1.0179,6.5308,-36.6211,-17.4561,
2026-07-24 18:52:25.679,6185173,-0.0068,-0.0995,1.0626,5.3101,-33.7524,-15.9912,
2026-07-24 18:52:25.699,6185193,-0.0128,-0.0765,1.1522,6.2256,-27.5879,-14.1602,
2026-07-24 18:52:25.719,6185213,0.0059,-0.0519,1.2555,9.9487,-22.8882,-11.7798,
2026-07-24 18:52:25.739,6185233,0.0081,-0.0598,1.3285,13.977,-19.5313,-9.0332,
2026-07-24 18:52:25.759,6185253,0.0765,-0.0768,1.494,16.3574,-18.6768,-5.8594,
2026-07-24 18:52:25.779,6185273,0.0869,-0.1268,1.4484,15.625,-24.5361,-2.5635,
2026-07-24 18:52:25.799,6185293,0.0011,-0.1973,1.2452,8.3008,-30.5786,1.0376,
2026-07-24 18:52:25.819,6185313,-0.0782,-0.2286,1.0405,-4.6387,-27.0386,5.4321,
2026-07-24 18:52:25.839,6185333,-0.1173,-0.2114,0.929,-18.5547,-15.3809,10.376,
2026-07-24 18:52:25.859,6185353,-0.1384,-0.1511,0.915,-28.8086,0.2441,15.2588,
2026-07-24 18:52:25.879,6185373,-0.1422,-0.0822,0.9572,-31.9824,17.0288,19.5313,
2026-07-24 18:52:25.899,6185393,-0.1013,-0.0171,0.9967,-27.71,32.1045,22.9492,
2026-07-24 18:52:25.919,6185413,-0.0419,0.0153,0.979,-17.4561,40.8936,24.9023,
2026-07-24 18:52:25.939,6185433,-0.0052,-0.0034,0.8843,-5.0049,42.4194,25.5127,
2026-07-24 18:52:25.959,6185453,-0.0161,-0.0446,0.7609,4.0894,40.4053,25.3906,
2026-07-24 18:52:25.979,6185473,-0.0071,-0.0801,0.6737,8.1177,38.6963,25.7568,
2026-07-24 18:52:25.999,6185493,0.0244,-0.0992,0.6385,8.2397,35.5225,26.8555,
2026-07-24 18:52:26.019,6185513,0.0339,-0.1255,0.6279,6.1646,29.4189,27.8931,
2026-07-24 18:52:26.039,6185533,0.0431,-0.1624,0.6338,1.8311,22.7051,28.5645,
2026-07-24 18:52:26.059,6185553,0.0518,-0.1819,0.6726,-5.4321,15.8081,28.3813,
2026-07-24 18:52:26.079,6185573,0.0524,-0.1791,0.7241,-13.3057,8.9111,27.2827,
2026-07-24 18:52:26.099,6185593,0.0593,-0.1953,0.7557,-20.2026,2.4414,25.8789,
2026-07-24 18:52:26.119,6185613,0.0463,-0.2191,0.7773,-27.5269,-3.6011,23.8647,
2026-07-24 18:52:26.139,6185633,0.0079,-0.2168,0.8284,-35.5225,-7.1411,21.2402,
2026-07-24 18:52:26.159,6185653,0.0021,-0.1919,0.9114,-40.8936,-6.7139,18.7378,
2026-07-24 18:52:26.179,6185673,0.0056,-0.1896,0.9714,-42.6025,-5.5542,16.2964,
2026-07-24 18:52:26.199,6185693,-0.0023,-0.1707,1.0447,-42.1753,-3.9062,13.977,
2026-07-24 18:52:26.219,6185713,0.0096,-0.1313,1.151,-38.147,-0.7324,11.9019,
2026-07-24 18:52:26.239,6185733,0.0507,-0.1213,1.2427,-29.9072,1.6479,9.4604,
2026-07-24 18:52:26.259,6185753,0.0747,-0.1144,1.3138,-20.813,0.7324,5.9814,
2026-07-24 18:52:26.279,6185773,0.1002,-0.0439,1.4669,-9.8877,-2.4414,2.2583,
2026-07-24 18:52:26.299,6185793,0.1372,-0.0374,1.5913,6.958,-8.4229,-1.5259,
2026-07-24 18:52:26.319,6185813,0.099,-0.1582,1.5327,19.8975,-16.7847,-6.1646,
2026-07-24 18:52:26.339,6185833,0.0288,-0.2727,1.4034,17.6392,-20.0195,-11.4136,
2026-07-24 18:52:26.359,6185853,-0.0016,-0.2809,1.283,3.9062,-15.686,-16.4185,
2026-07-24 18:52:26.379,6185873,0.02,-0.1938,1.2439,-9.4604,-8.5449,-20.874,
2026-07-24 18:52:26.399,6185893,0.0328,-0.0898,1.2406,-13.0005,-4.2114,-24.1699,
2026-07-24 18:52:26.419,6185913,-0.0085,-0.0375,1.174,-6.2256,-1.8921,-26.4282,
2026-07-24 18:52:26.439,6185933,-0.0536,-0.031,1.068,4.3335,3.1738,-27.4658,
2026-07-24 18:52:26.459,6185953,-0.0378,-0.0234,0.972,18.2495,12.6953,-27.0386,
2026-07-24 18:52:26.479,6185973,0.0033,-0.0316,0.8571,24.9023,13.6108,-26.4893,
2026-07-24 18:52:26.499,6185993,0.0109,-0.0537,0.7571,27.8931,11.6577,-26.1841,
2026-07-24 18:52:26.519,6186013,0.0021,-0.0682,0.6919,28.3813,10.1318,-25.4517,
2026-07-24 18:52:26.539,6186033,-0.0084,-0.0723,0.6641,27.832,9.6436,-24.353,
2026-07-24 18:52:26.559,6186053,-0.0211,-0.0637,0.6594,27.5269,10.498,-22.8271,
2026-07-24 18:52:26.579,6186073,-0.0035,-0.0596,0.6626,27.3437,11.0474,-21.0571,
2026-07-24 18:52:26.599,6186093,0.0444,-0.0769,0.6672,25.3296,7.7515,-19.3481,
2026-07-24 18:52:26.619,6186113,0.0903,-0.1008,0.675,20.5078,-0.6714,-17.7002,
2026-07-24 18:52:26.639,6186133,0.0973,-0.0961,0.7122,15.1367,-11.3525,-16.2354,
2026-07-24 18:52:26.659,6186153,0.0703,-0.0841,0.7904,11.2305,-19.5923,-14.3433,
2026-07-24 18:52:26.679,6186173,0.0729,-0.0524,0.9172,10.1318,-26.062,-12.4512,
2026-07-24 18:52:26.699,6186193,0.0756,-0.037,1.035,11.7187,-32.1655,-11.0474,
2026-07-24 18:52:26.719,6186213,0.0309,-0.0555,1.109,12.4512,-34.2407,-10.6201,
2026-07-24 18:52:26.739,6186233,-0.0433,-0.0883,1.1519,11.3525,-26.5503,-11.0474,
2026-07-24 18:52:26.759,6186253,-0.0466,-0.1007,1.2179,8.9722,-13.4277,-11.8408,
2026-07-24 18:52:26.779,6186273,0.0291,-0.0746,1.308,8.606,-6.1035,-11.4136,
2026-07-24 18:52:26.799,6186293,0.1224,-0.046,1.4025,11.5967,-9.7656,-9.1553,
2026-07-24 18:52:26.819,6186313,0.2264,-0.0353,1.5386,15.7471,-26.5503,-6.2256,
2026-07-24 18:52:26.839,6186333,0.1835,-0.1096,1.5521,14.3433,-46.814,-3.2349,
2026-07-24 18:52:26.859,6186353,0.0286,-0.197,1.4095,3.8452,-53.5278,-0.1831,
2026-07-24 18:52:26.879,6186373,-0.1329,-0.2489,1.0902,-12.207,-41.3818,2.6855,
2026-07-24 18:52:26.899,6186393,-0.2319,-0.2524,0.8357,-29.0527,-15.4419,5.7983,
2026-07-24 18:52:26.919,6186413,-0.2336,-0.1699,0.7941,-37.9028,13.2446,9.5825,
2026-07-24 18:52:26.939,6186433,-0.1913,-0.0504,0.8707,-34.3018,37.1704,13.2446,
2026-07-24 18:52:26.959,6186453,-0.1049,0.0479,0.9601,-19.6533,50.6592,15.9302,
2026-07-24 18:52:26.979,6186473,-0.0032,0.0342,0.8956,-0.9766,52.3071,16.6626,
2026-07-24 18:52:26.999,6186493,-0.0209,-0.0552,0.786,11.9019,48.9502,15.9912,
2026-07-24 18:52:27.019,6186513,-0.0443,-0.1215,0.6951,15.0757,47.3633,15.7471,
2026-07-24 18:52:27.039,6186533,-0.0339,-0.1517,0.6348,11.4746,47.4853,16.9067,
2026-07-24 18:52:27.059,6186553,0.0038,-0.1351,0.6129,5.8594,46.2646,18.8599,
2026-07-24 18:52:27.079,6186573,0.0408,-0.1112,0.625,2.9297,41.748,20.813,
2026-07-24 18:52:27.099,6186593,0.0817,-0.1226,0.6547,2.9297,33.8745,22.4609,
2026-07-24 18:52:27.119,6186613,0.0789,-0.1499,0.6765,2.0142,22.9492,23.7427,
2026-07-24 18:52:27.139,6186633,0.057,-0.1815,0.7085,-1.2817,13.1226,24.5972,
2026-07-24 18:52:27.159,6186653,0.0359,-0.2097,0.7583,-7.2632,6.7139,24.8413,
2026-07-24 18:52:27.179,6186673,0.062,-0.2001,0.8499,-14.5874,2.5635,24.292,
2026-07-24 18:52:27.199,6186693,0.1177,-0.1847,0.9452,-19.5313,-4.5166,22.8271,
2026-07-24 18:52:27.219,6186713,0.098,-0.196,0.9891,-22.0337,-15.8081,20.5078,
2026-07-24 18:52:27.239,6186733,-0.0033,-0.2292,0.994,-24.7803,-22.7051,17.8833,
2026-07-24 18:52:27.259,6186753,-0.0464,-0.2203,1.0438,-28.7476,-18.3105,15.625,
2026-07-24 18:52:27.279,6186773,0.0126,-0.1769,1.1477,-29.7852,-10.0708,13.3057,
2026-07-24 18:52:27.299,6186793,0.0809,-0.1407,1.2402,-24.7803,-7.4463,10.3149,
2026-07-24 18:52:27.319,6186813,0.0752,-0.1204,1.2897,-15.4419,-10.3149,6.6528,
2026-07-24 18:52:27.339,6186833,0.1095,-0.0601,1.4359,-3.1738,-12.5732,2.8076,
2026-07-24 18:52:27.359,6186853,0.1655,-0.0513,1.5662,14.5874,-17.8223,-1.5259,
2026-07-24 18:52:27.379,6186873,0.0887,-0.2057,1.4995,27.0996,-26.6724,-6.897,
2026-07-24 18:52:27.399,6186893,-0.0636,-0.3732,1.2947,20.5688,-25.8789,-11.7187,
2026-07-24 18:52:27.419,6186913,-0.0773,-0.3724,1.1617,-1.2207,-10.8032,-14.5264,
2026-07-24 18:52:27.439,6186933,0.0121,-0.2465,1.1497,-20.874,4.0283,-15.9302,
2026-07-24 18:52:27.459,6186953,0.061,-0.1295,1.1549,-26.9165,8.9722,-16.5405,
2026-07-24 18:52:27.479,6186973,0.0699,-0.0652,1.1567,-21.3013,7.1411,-16.8457,
2026-07-24 18:52:27.499,6186993,0.0737,-0.0453,1.1243,-10.2539,2.5635,-17.1509,
2026-07-24 18:52:27.519,6187013,0.0768,-0.0525,1.0376,0.4272,-4.2114,-17.8223,
2026-07-24 18:52:27.539,6187033,0.0575,-0.0668,0.9081,7.6904,-12.085,-18.7988,
2026-07-24 18:52:27.559,6187053,0.0393,-0.0691,0.8008,11.8408,-18.4937,-19.5923,
2026-07-24 18:52:27.579,6187073,0.0165,-0.0597,0.7302,14.9536,-22.8882,-19.7144,
2026-07-24 18:52:27.599,6187093,-0.0341,-0.0605,0.6792,18.2495,-24.1699,-19.165,
2026-07-24 18:52:27.619,6187113,-0.0615,-0.066,0.651,21.7285,-20.2026,-17.8833,
2026-07-24 18:52:27.639,6187133,-0.0758,-0.0808,0.6415,23.9258,-12.6953,-16.1743,
2026-07-24 18:52:27.659,6187153,-0.0707,-0.0876,0.667,24.4141,-3.6011,-14.4043,
2026-07-24 18:52:27.679,6187173,-0.042,-0.0868,0.7031,23.8647,4.5166,-12.6343,
2026-07-24 18:52:27.699,6187193,0.0032,-0.0837,0.7792,22.4609,9.5825,-9.7046,
2026-07-24 18:52:27.719,6187213,0.0363,-0.083,0.8771,21.9116,7.1411,-7.5073,
2026-07-24 18:52:27.739,6187233,0.0397,-0.0928,0.9308,21.3013,3.6621,-5.0049,
2026-07-24 18:52:27.759,6187253,0.0162,-0.1138,0.9913,19.7144,2.7466,-2.8687,
2026-07-24 18:52:27.779,6187273,0.0071,-0.1277,1.0576,17.0288,5.249,-1.1597,
2026-07-24 18:52:27.799,6187293,0.0413,-0.1349,1.1262,14.2212,6.5918,0.3052,
2026-07-24 18:52:27.819,6187313,0.0996,-0.1206,1.2115,12.6343,2.8076,1.2207,
2026-07-24 18:52:27.839,6187333,0.1268,-0.1154,1.282,12.4512,-5.188,1.3428,
2026-07-24 18:52:27.859,6187353,0.1187,-0.124,1.3364,12.2681,-13.0005,0.7324,
2026-07-24 18:52:27.879,6187373,0.1282,-0.1238,1.412,11.6577,-20.3857,0.061,
2026-07-24 18:52:27.899,6187393,0.1628,-0.1367,1.4441,10.498,-31.25,-0.3052,
2026-07-24 18:52:27.919,6187413,0.1044,-0.1898,1.3046,5.0659,-40.8325,0.3662,
2026-07-24 18:52:27.939,6187433,-0.0247,-0.2419,1.0607,-6.1035,-38.5132,2.5635,
2026-07-24 18:52:27.959,6187453,-0.1101,-0.2368,0.9,-18.5547,-24.5972,5.7983,
2026-07-24 18:52:27.979,6187473,-0.1227,-0.1726,0.8677,-26.062,-7.1411,9.5215,
2026-07-24 18:52:27.999,6187493,-0.1023,-0.0999,0.8967,-25.7568,8.0566,13.0005,
2026-07-24 18:52:28.019,6187513,-0.0433,-0.0426,0.9609,-19.5313,16.4185,15.4419,
2026-07-24 18:52:28.039,6187533,0.0295,0.0004,1.0215,-8.4839,15.625,16.1743,
2026-07-24 18:52:28.059,6187553,0.0518,-0.0099,0.9949,3.3569,9.1553,15.4419,
2026-07-24 18:52:28.079,6187573,0.0103,-0.0627,0.8717,10.3149,5.127,13.977,
2026-07-24 18:52:28.099,6187593,-0.0205,-0.1029,0.7676,12.0239,5.6152,12.7563,
2026-07-24 18:52:28.119,6187613,-0.0144,-0.1157,0.7054,11.4136,6.897,12.5122,
2026-07-24 18:52:28.139,6187633,-0.002,-0.1176,0.6667,10.2539,7.2632,12.4512,
2026-07-24 18:52:28.159,6187653,-0.0096,-0.1255,0.6501,8.7891,7.6904,12.4512,
2026-07-24 18:52:28.179,6187673,-0.0377,-0.1476,0.6514,5.9204,10.6201,12.7563,
2026-07-24 18:52:28.199,6187693,-0.0389,-0.2001,0.6802,0.1221,15.625,13.3057,
2026-07-24 18:52:28.219,6187713,-0.0424,-0.2147,0.7181,-8.3618,20.2637,13.4888,
2026-07-24 18:52:28.239,6187733,-0.0291,-0.1962,0.8031,-16.6016,25.3296,13.1226,
2026-07-24 18:52:28.259,6187753,0.0133,-0.1892,0.8949,-21.3623,28.6255,12.3901,
2026-07-24 18:52:28.279,6187773,0.0338,-0.2042,0.927,-23.7427,27.771,11.4746,
2026-07-24 18:52:28.299,6187793,0.0111,-0.2168,0.9165,-26.062,25.5127,10.498,
2026-07-24 18:52:28.319,6187813,0.0074,-0.1962,0.9513,-27.9541,25.8179,9.7656,
2026-07-24 18:52:28.339,6187833,0.0574,-0.1595,1.0677,-26.4282,26.2451,8.667,
2026-07-24 18:52:28.359,6187853,0.0963,-0.1578,1.1655,-20.5078,21.7895,6.5918,
2026-07-24 18:52:28.379,6187873,0.0878,-0.1956,1.2017,-14.7095,14.4653,3.7842,
2026-07-24 18:52:28.399,6187893,0.0991,-0.1776,1.3024,-11.7187,8.3618,0.9766,
